"","firstgabor","corrAns","blocks.thisRepN","blocks.thisTrialN","blocks.thisN","blocks.thisIndex","trials.thisRepN","trials.thisTrialN","trials.thisN","trials.thisIndex","key_resp_2.keys","key_resp_2.rt","resp.keys","resp.corr","resp.rt","resp_mrating.keys","resp_mrating.rt","lumi","mean","luminance","expName","participant","frameRate","session","date","X"
"1",2,"down",0,0,0,0,0,0,0,3,1,0.952956132816,1,0,3.28144930069,1,0.763834319654,0.079934211,0,0.079934211,"metacognition_realexp","ab",85.0860733211,1,"2014_Mar_13_1503",NA
"2",1,"left",0,0,0,0,0,1,1,4,2,1.47052837821,1,1,0.599596590851,1,0.46993238912,0.079934211,0.5,0.079934211,"metacognition_realexp","ab",85.0860733211,1,"2014_Mar_13_1503",NA
"3",1,"left",0,0,0,0,0,2,2,2,2,1.09417782574,1,1,0.423074864777,1,1.12247344711,0.079934211,0.666666666667,0.079934211,"metacognition_realexp","ab",85.0860733211,1,"2014_Mar_13_1503",NA
"4",1,"left",0,0,0,0,0,3,3,0,2,0.658875944564,2,0,0.517221505042,1,4.51666286153,0.079934211,0.5,0.079934211,"metacognition_realexp","ab",85.0860733211,1,"2014_Mar_13_1503",NA
"5",2,"down",0,0,0,0,0,4,4,5,1,0.576493158638,1,0,1.37596785663,1,1.77573100102,0.079934211,0.4,0.079934211,"metacognition_realexp","ab",85.0860733211,1,"2014_Mar_13_1503",NA
"6",2,"down",0,0,0,0,0,5,5,9,2,2.61138662559,2,1,1.56414294036,1,0.634600554486,0.079934211,0.5,0.079934211,"metacognition_realexp","ab",85.0860733211,1,"2014_Mar_13_1503",NA
"7",1,"left",0,0,0,0,0,6,6,6,2,1.34120798672,1,1,2.45819009511,1,1.49340850701,0.079934211,0.571428571429,0.079934211,"metacognition_realexp","ab",85.0860733211,1,"2014_Mar_13_1503",NA
"8",2,"down",0,0,0,0,0,7,7,7,1,0.376581555987,2,1,3.30517451739,2,1.09344515957,0.079934211,0.625,0.079934211,"metacognition_realexp","ab",85.0860733211,1,"2014_Mar_13_1503",NA
"9",1,"left",0,0,0,0,0,8,8,8,2,3.04696186093,1,1,0.681861949985,1,2.58739459983,0.079934211,0.666666666667,0.079934211,"metacognition_realexp","ab",85.0860733211,1,"2014_Mar_13_1503",NA
"10",2,"down",0,0,0,0,0,9,9,1,1,0.328933999599,1,0,2.72851388119,1,0.717774142466,0.079934211,0.6,0.079934211,"metacognition_realexp","ab",85.0860733211,1,"2014_Mar_13_1503",NA
"11",1,"left",0,0,0,0,1,0,10,8,1,0.364835411916,1,1,1.44653288739,1,0.375765343542,0.079934211,0.636363636364,0.079934211,"metacognition_realexp","ab",85.0860733211,1,"2014_Mar_13_1503",NA
"12",2,"down",0,0,0,0,1,1,11,5,1,0.847086448832,1,0,1.04587152431,1,1.0822957746,0.079934211,0.583333333333,0.079934211,"metacognition_realexp","ab",85.0860733211,1,"2014_Mar_13_1503",NA
"13",2,"down",0,0,0,0,1,2,12,3,2,1.08237508581,2,1,0.846574391026,1,0.587575167583,0.079934211,0.615384615385,0.079934211,"metacognition_realexp","ab",85.0860733211,1,"2014_Mar_13_1503",NA
"14",1,"left",0,0,0,0,1,3,13,4,2,0.376622366608,1,1,0.752403495391,2,3.03445648529,0.079934211,0.642857142857,0.079934211,"metacognition_realexp","ab",85.0860733211,1,"2014_Mar_13_1503",NA
"15",2,"down",0,0,0,0,1,4,14,7,1,0.553040526102,1,0,1.99941440607,1,0.563965067648,0.079934211,0.6,0.079934211,"metacognition_realexp","ab",85.0860733211,1,"2014_Mar_13_1503",NA
"16",1,"left",0,0,0,0,1,5,15,2,1,3.38808707139,1,1,3.54049279981,2,0.575814393291,0.079934211,0.625,0.079934211,"metacognition_realexp","ab",85.0860733211,1,"2014_Mar_13_1503",NA
"17",1,"left",0,0,0,0,1,6,16,0,2,1.2588456061,1,1,0.893627883357,2,0.940477322578,0.079934211,0.647058823529,0.079934211,"metacognition_realexp","ab",85.0860733211,1,"2014_Mar_13_1503",NA
"18",2,"down",0,0,0,0,1,7,17,9,1,0.305977639629,2,1,1.52888448785,1,0.505195076699,0.079934211,0.666666666667,0.079934211,"metacognition_realexp","ab",85.0860733211,1,"2014_Mar_13_1503",NA
"19",2,"down",0,0,0,0,1,8,18,1,2,2.41116547822,2,1,0.541227776017,1,0.446339614447,0.079934211,0.684210526316,0.079934211,"metacognition_realexp","ab",85.0860733211,1,"2014_Mar_13_1503",NA
"20",1,"left",0,0,0,0,1,9,19,6,2,1.96470381691,1,1,1.32883851814,1,0.928735798578,0.079934211,0.7,0.079934211,"metacognition_realexp","ab",85.0860733211,1,"2014_Mar_13_1503",NA
"21",1,"left",0,0,0,0,2,0,20,8,2,0.482418129464,1,1,0.528942238725,1,1.0111120394,0.079934211,0.714285714286,0.079934211,"metacognition_realexp","ab",85.0860733211,1,"2014_Mar_13_1503",NA
"22",2,"down",0,0,0,0,2,1,21,1,1,0.247122562385,1,0,1.74062693586,2,3.69319305773,0.079934211,0.681818181818,0.079934211,"metacognition_realexp","ab",85.0860733211,1,"2014_Mar_13_1503",NA
"23",1,"left",0,0,0,0,2,2,22,6,2,0.376571160828,1,1,0.646685118714,2,0.71677004716,0.079934211,0.695652173913,0.079934211,"metacognition_realexp","ab",85.0860733211,1,"2014_Mar_13_1503",NA
"24",1,"left",0,0,0,0,2,3,23,2,2,9.41115354304,1,1,0.399530215838,1,1.59928974117,0.079934211,0.708333333333,0.079934211,"metacognition_realexp","ab",85.0860733211,1,"2014_Mar_13_1503",NA
"25",2,"down",0,0,0,0,2,4,24,7,1,2.91749324218,1,0,0.999490637234,2,0.352278830491,0.079934211,0.68,0.079934211,"metacognition_realexp","ab",85.0860733211,1,"2014_Mar_13_1503",NA
"26",1,"left",0,0,0,0,2,5,25,0,2,7.64633322335,1,1,0.846788069284,1,0.705294947222,0.079934211,0.692307692308,0.079934211,"metacognition_realexp","ab",85.0860733211,1,"2014_Mar_13_1503",NA
"27",2,"down",0,0,0,0,2,6,26,5,1,0.529525137612,2,1,0.693605784021,2,0.528762055977,0.079934211,0.703703703704,0.079934211,"metacognition_realexp","ab",85.0860733211,1,"2014_Mar_13_1503",NA
"28",2,"down",0,0,0,0,2,7,27,9,1,0.353068477529,2,1,0.564204541299,2,1.28168800433,0.079934211,0.714285714286,0.079934211,"metacognition_realexp","ab",85.0860733211,1,"2014_Mar_13_1503",NA
"29",2,"down",0,0,0,0,2,8,28,3,2,0.647154825874,2,1,0.658212579452,2,3.84629449176,0.079934211,0.724137931034,0.079934211,"metacognition_realexp","ab",85.0860733211,1,"2014_Mar_13_1503",NA
"30",1,"left",0,0,0,0,2,9,29,4,2,1.3641458664,1,1,0.494233189584,1,0.434525324339,0.079934211,0.733333333333,0.079934211,"metacognition_realexp","ab",85.0860733211,1,"2014_Mar_13_1503",NA
"31",1,"left",0,0,0,0,3,0,30,4,1,0.882393797092,1,1,0.987872315114,2,1.21087926485,0.079934211,0.741935483871,0.079934211,"metacognition_realexp","ab",85.0860733211,1,"2014_Mar_13_1503",NA
"32",1,"left",0,0,0,0,3,1,31,0,2,0.447146971756,1,1,0.670093475575,2,3.46910924657,0.079934211,0.75,0.079934211,"metacognition_realexp","ab",85.0860733211,1,"2014_Mar_13_1503",NA
"33",2,"down",0,0,0,0,3,2,32,1,1,0.847103004086,2,1,0.775984719887,1,0.799176703447,0.079934211,0.757575757576,0.079934211,"metacognition_realexp","ab",85.0860733211,1,"2014_Mar_13_1503",NA
"34",2,"down",0,0,0,0,3,3,33,7,1,0.788509730832,2,1,0.505195846712,1,1.37580615416,0.079934211,0.764705882353,0.079934211,"metacognition_realexp","ab",85.0860733211,1,"2014_Mar_13_1503",NA
"35",2,"down",0,0,0,0,3,4,34,9,1,0.905875690074,2,1,0.552376390977,2,0.458294816704,0.079934211,0.771428571429,0.079934211,"metacognition_realexp","ab",85.0860733211,1,"2014_Mar_13_1503",NA
"36",1,"left",0,0,0,0,3,5,35,8,2,0.870726194222,1,1,0.646467205392,2,1.10518360352,0.079934211,0.777777777778,0.079934211,"metacognition_realexp","ab",85.0860733211,1,"2014_Mar_13_1503",NA
"37",2,"down",0,0,0,0,3,6,36,3,1,0.411882359147,1,0,3.63459978447,1,0.410372366126,0.079934211,0.756756756757,0.079934211,"metacognition_realexp","ab",85.0860733211,1,"2014_Mar_13_1503",NA
"38",1,"left",0,0,0,0,3,7,37,6,1,2.18820703922,1,1,0.811299383258,2,0.364036524736,0.079934211,0.763157894737,0.079934211,"metacognition_realexp","ab",85.0860733211,1,"2014_Mar_13_1503",NA
"39",2,"down",0,0,0,0,3,8,38,5,1,1.811675919,1,0,0.834831712009,2,1.58681324097,0.079934211,0.74358974359,0.079934211,"metacognition_realexp","ab",85.0860733211,1,"2014_Mar_13_1503",NA
"40",1,"left",0,0,0,0,3,9,39,2,1,1.12947439384,1,1,1.07010879881,1,0.493392721772,0.079934211,0.75,0.079934211,"metacognition_realexp","ab",85.0860733211,1,"2014_Mar_13_1503",NA
"41",2,"down",0,0,0,0,4,0,40,5,1,0.564824400748,2,1,0.893655988786,1,0.587495086362,0.079934211,0.756097560976,0.079934211,"metacognition_realexp","ab",85.0860733211,1,"2014_Mar_13_1503",NA
"42",2,"down",0,0,0,0,4,1,41,1,1,0.235453804493,1,0,1.22232972442,1,0.658774688021,0.079934211,0.738095238095,0.079934211,"metacognition_realexp","ab",85.0860733211,1,"2014_Mar_13_1503",NA
"43",1,"left",0,0,0,0,4,2,42,0,1,0.21186680491,2,0,0.634755711852,1,0.611481337033,0.079934211,0.720930232558,0.079934211,"metacognition_realexp","ab",85.0860733211,1,"2014_Mar_13_1503",NA
"44",1,"left",0,0,0,0,4,3,43,6,2,0.635356321007,1,1,0.858290504639,1,0.411100027221,0.079934211,0.727272727273,0.079934211,"metacognition_realexp","ab",85.0860733211,1,"2014_Mar_13_1503",NA
"45",1,"left",0,0,0,0,4,4,44,8,2,0.458046487918,1,1,0.55243491187,1,0.340514591144,0.079934211,0.733333333333,0.079934211,"metacognition_realexp","ab",85.0860733211,1,"2014_Mar_13_1503",NA
"46",2,"down",0,0,0,0,4,5,45,7,1,3.05868913972,1,0,0.42312761058,2,0.411098487197,0.079934211,0.717391304348,0.079934211,"metacognition_realexp","ab",85.0860733211,1,"2014_Mar_13_1503",NA
"47",1,"left",0,0,0,0,4,6,46,2,2,0.329485713009,1,1,0.599551545163,2,3.91673016055,0.079934211,0.723404255319,0.079934211,"metacognition_realexp","ab",85.0860733211,1,"2014_Mar_13_1503",NA
"48",2,"down",0,0,0,0,4,7,47,9,1,0.517791313729,1,0,0.670065370146,2,1.50516504624,0.079934211,0.708333333333,0.079934211,"metacognition_realexp","ab",85.0860733211,1,"2014_Mar_13_1503",NA
"49",1,"left",0,0,0,0,4,8,48,4,1,1.05882697182,1,1,0.517264240692,2,0.905115303483,0.079934211,0.714285714286,0.079934211,"metacognition_realexp","ab",85.0860733211,1,"2014_Mar_13_1503",NA
"50",2,"down",0,0,0,0,4,9,49,3,1,0.129503654283,1,0,1.35244823307,1,0.446349624601,0.079934211,0.7,0.079934211,"metacognition_realexp","ab",85.0860733211,1,"2014_Mar_13_1503",NA
"51",NA,"",0,0,0,0,NA,NA,NA,NA,NA,NA,NA,NA,NA,NA,NA,NA,NA,0.079934211,"metacognition_realexp","ab",85.0860733211,1,"2014_Mar_13_1503",NA
"52",2,"down",1,0,1,0,0,0,0,3,1,0.670642493944,1,0,0.481660822919,1,0.257962017631,0.079934211,0,0.079934211,"metacognition_realexp","ab",85.0860733211,1,"2014_Mar_13_1503",NA
"53",2,"down",1,0,1,0,0,1,1,9,1,0.423614643005,1,0,0.846576701062,1,0.952226161688,0.079934211,0,0.079934211,"metacognition_realexp","ab",85.0860733211,1,"2014_Mar_13_1503",NA
"54",2,"down",1,0,1,0,0,2,2,5,2,1.30586560292,2,1,0.705421229148,1,0.446454731202,0.079934211,0.333333333333,0.079934211,"metacognition_realexp","ab",85.0860733211,1,"2014_Mar_13_1503",NA
"55",1,"left",1,0,1,0,0,3,3,4,1,1.20020382211,1,1,1.56331055767,1,1.18818393886,0.079934211,0.5,0.079934211,"metacognition_realexp","ab",85.0860733211,1,"2014_Mar_13_1503",NA
"56",1,"left",1,0,1,0,0,4,4,2,2,0.60011095869,1,1,0.587758430376,2,0.822823378941,0.079934211,0.6,0.079934211,"metacognition_realexp","ab",85.0860733211,1,"2014_Mar_13_1503",NA
"57",1,"left",1,0,1,0,0,5,5,8,1,1.44706381049,1,1,0.48186487603,2,0.30527846897,0.079934211,0.666666666667,0.079934211,"metacognition_realexp","ab",85.0860733211,1,"2014_Mar_13_1503",NA
"58",2,"down",1,0,1,0,0,6,6,7,1,0.670637103864,1,0,0.364240192841,1,0.246419926671,0.079934211,0.571428571429,0.079934211,"metacognition_realexp","ab",85.0860733211,1,"2014_Mar_13_1503",NA
"59",1,"left",1,0,1,0,0,7,7,6,2,1.10538765663,1,1,0.447066505529,1,0.740591515318,0.079934211,0.625,0.079934211,"metacognition_realexp","ab",85.0860733211,1,"2014_Mar_13_1503",NA
"60",1,"left",1,0,1,0,0,8,8,0,1,2.69404084065,1,1,1.10538226655,2,0.446388895198,0.079934211,0.666666666667,0.079934211,"metacognition_realexp","ab",85.0860733211,1,"2014_Mar_13_1503",NA
"61",2,"down",1,0,1,0,0,9,9,1,2,3.61157912852,2,1,1.03417697103,1,0.411718346646,0.079934211,0.7,0.079934211,"metacognition_realexp","ab",85.0860733211,1,"2014_Mar_13_1503",NA
"62",2,"down",1,0,1,0,1,0,10,1,2,2.6940766462,2,1,0.575984180879,1,0.575117917671,0.079934211,0.727272727273,0.079934211,"metacognition_realexp","ab",85.0860733211,1,"2014_Mar_13_1503",NA
"63",2,"down",1,0,1,0,1,1,11,5,2,1.40000685311,2,1,0.434870289597,1,0.364055390024,0.079934211,0.75,0.079934211,"metacognition_realexp","ab",85.0860733211,1,"2014_Mar_13_1503",NA
"64",1,"left",1,0,1,0,1,2,12,0,1,3.5409709771,1,1,0.458355262626,2,0.445750940473,0.079934211,0.769230769231,0.079934211,"metacognition_realexp","ab",85.0860733211,1,"2014_Mar_13_1503",NA
"65",1,"left",1,0,1,0,1,3,13,6,2,0.871271362532,1,1,0.752492816753,2,0.810031558933,0.079934211,0.785714285714,0.079934211,"metacognition_realexp","ab",85.0860733211,1,"2014_Mar_13_1503",NA
"66",2,"down",1,0,1,0,1,4,14,9,2,0.305948764189,2,1,0.800679766364,1,0.340464925388,0.079934211,0.8,0.079934211,"metacognition_realexp","ab",85.0860733211,1,"2014_Mar_13_1503",NA
"67",2,"down",1,0,1,0,1,5,15,3,2,6.02262063485,2,1,0.553123302365,1,0.811257417619,0.079934211,0.8125,0.079934211,"metacognition_realexp","ab",85.0860733211,1,"2014_Mar_13_1503",NA
"68",1,"left",1,0,1,0,1,6,16,4,2,8.8229388807,1,1,0.446605653504,1,0.858176157895,0.079934211,0.823529411765,0.079934211,"metacognition_realexp","ab",85.0860733211,1,"2014_Mar_13_1503",NA
"69",1,"left",1,0,1,0,1,7,17,8,1,3.64686684148,1,1,0.423110670323,2,0.52877399116,0.079934211,0.833333333333,0.079934211,"metacognition_realexp","ab",85.0860733211,1,"2014_Mar_13_1503",NA
"70",1,"left",1,0,1,0,1,8,18,2,1,0.353029976943,1,1,1.32899136547,1,0.540350732646,0.079934211,0.842105263158,0.079934211,"metacognition_realexp","ab",85.0860733211,1,"2014_Mar_13_1503",NA
"71",2,"down",1,0,1,0,1,9,19,7,2,1.30587330304,2,1,0.481906841669,1,0.493429682336,0.079934211,0.85,0.079934211,"metacognition_realexp","ab",85.0860733211,1,"2014_Mar_13_1503",NA
"72",2,"down",1,0,1,0,2,0,20,9,2,12.6931645673,2,1,0.693752856261,1,0.458117714004,0.079934211,0.857142857143,0.079934211,"metacognition_realexp","ab",85.0860733211,1,"2014_Mar_13_1503",NA
"73",2,"down",1,0,1,0,2,1,21,7,1,0.447147356761,1,0,0.893622493275,1,0.540446599109,0.079934211,0.818181818182,0.079934211,"metacognition_realexp","ab",85.0860733211,1,"2014_Mar_13_1503",NA
"74",1,"left",1,0,1,0,2,2,22,2,1,0.282452240985,2,0,0.893620953251,1,0.74048409868,0.079934211,0.782608695652,0.079934211,"metacognition_realexp","ab",85.0860733211,1,"2014_Mar_13_1503",NA
"75",1,"left",1,0,1,0,2,3,23,8,1,0.317749579093,2,0,1.50537102438,1,0.540456224255,0.079934211,0.75,0.079934211,"metacognition_realexp","ab",85.0860733211,1,"2014_Mar_13_1503",NA
"76",2,"down",1,0,1,0,2,4,24,1,1,0.587955553383,2,1,0.552824152805,1,0.3169761023,0.079934211,0.76,0.079934211,"metacognition_realexp","ab",85.0860733211,1,"2014_Mar_13_1503",NA
"77",1,"left",1,0,1,0,2,5,25,4,1,0.353015346718,1,1,0.799025396142,1,0.411585904627,0.079934211,0.769230769231,0.079934211,"metacognition_realexp","ab",85.0860733211,1,"2014_Mar_13_1503",NA
"78",1,"left",1,0,1,0,2,6,26,0,1,1.24706404149,2,0,0.576044626801,1,0.893399959883,0.079934211,0.740740740741,0.079934211,"metacognition_realexp","ab",85.0860733211,1,"2014_Mar_13_1503",NA
"79",2,"down",1,0,1,0,2,7,27,5,1,0.283487136761,1,0,0.752406960444,1,0.352254190115,0.079934211,0.714285714286,0.079934211,"metacognition_realexp","ab",85.0860733211,1,"2014_Mar_13_1503",NA
"80",1,"left",1,0,1,0,2,8,28,6,2,0.776547213463,1,1,0.529151296911,2,0.528525662374,0.079934211,0.724137931034,0.079934211,"metacognition_realexp","ab",85.0860733211,1,"2014_Mar_13_1503",NA
"81",2,"down",1,0,1,0,2,9,29,3,2,1.44644895611,2,1,0.364912028082,1,0.528718165309,0.079934211,0.733333333333,0.079934211,"metacognition_realexp","ab",85.0860733211,1,"2014_Mar_13_1503",NA
"82",1,"left",1,0,1,0,3,0,30,8,2,0.435373877275,1,1,0.552481112574,2,1.22281675684,0.079934211,0.741935483871,0.079934211,"metacognition_realexp","ab",85.0860733211,1,"2014_Mar_13_1503",NA
"83",2,"down",1,0,1,0,3,1,31,1,2,0.623667542812,2,1,0.681789953887,2,0.893485816192,0.079934211,0.75,0.079934211,"metacognition_realexp","ab",85.0860733211,1,"2014_Mar_13_1503",NA
"84",2,"down",1,0,1,0,3,2,32,3,2,0.458901200947,2,1,0.446578703093,1,0.246366795862,0.079934211,0.757575757576,0.079934211,"metacognition_realexp","ab",85.0860733211,1,"2014_Mar_13_1503",NA
"85",1,"left",1,0,1,0,3,3,33,6,2,0.964718062127,1,1,0.823157949042,2,1.19916199622,0.079934211,0.764705882353,0.079934211,"metacognition_realexp","ab",85.0860733211,1,"2014_Mar_13_1503",NA
"86",2,"down",1,0,1,0,3,4,34,9,2,0.435340381764,2,1,0.564268067266,1,0.328716086276,0.079934211,0.771428571429,0.079934211,"metacognition_realexp","ab",85.0860733211,1,"2014_Mar_13_1503",NA
"87",2,"down",1,0,1,0,3,5,35,7,1,0.858885338706,2,1,0.411326795676,2,1.23479120939,0.079934211,0.777777777778,0.079934211,"metacognition_realexp","ab",85.0860733211,1,"2014_Mar_13_1503",NA
"88",2,"down",1,0,1,0,3,6,36,5,2,0.482388099006,2,1,0.37604986288,2,0.55226435427,0.079934211,0.783783783784,0.079934211,"metacognition_realexp","ab",85.0860733211,1,"2014_Mar_13_1503",NA
"89",1,"left",1,0,1,0,3,7,37,4,2,3.24685421329,2,0,0.387798316986,1,0.222869502646,0.079934211,0.763157894737,0.079934211,"metacognition_realexp","ab",85.0860733211,1,"2014_Mar_13_1503",NA
"90",1,"left",1,0,1,0,3,8,38,2,1,0.341295383048,1,1,0.705365403297,1,0.246392591256,0.079934211,0.769230769231,0.079934211,"metacognition_realexp","ab",85.0860733211,1,"2014_Mar_13_1503",NA
"91",1,"left",1,0,1,0,3,9,39,0,2,0.964714597074,1,1,0.470116036919,1,1.0581566766,0.079934211,0.775,0.079934211,"metacognition_realexp","ab",85.0860733211,1,"2014_Mar_13_1503",NA
"92",1,"left",1,0,1,0,4,0,40,2,2,0.317777299515,1,1,0.623030358098,2,0.799324930709,0.079934211,0.780487804878,0.079934211,"metacognition_realexp","ab",85.0860733211,1,"2014_Mar_13_1503",NA
"93",2,"down",1,0,1,0,4,1,41,3,1,1.6233191125,2,1,0.446589868263,2,0.634581304192,0.079934211,0.785714285714,0.079934211,"metacognition_realexp","ab",85.0860733211,1,"2014_Mar_13_1503",NA
"94",1,"left",1,0,1,0,4,2,42,0,1,0.0359722533958,1,1,1.65735170633,1,0.847054108341,0.079934211,0.790697674419,0.079934211,"metacognition_realexp","ab",85.0860733211,1,"2014_Mar_13_1503",NA
"95",2,"down",1,0,1,0,4,3,43,7,2,0.200141451156,2,1,0.564203001275,2,0.587601347983,0.079934211,0.795454545455,0.079934211,"metacognition_realexp","ab",85.0860733211,1,"2014_Mar_13_1503",NA
"96",1,"left",1,0,1,0,4,4,44,6,2,0.27070378688,1,1,0.705353468114,1,0.422895837046,0.079934211,0.8,0.079934211,"metacognition_realexp","ab",85.0860733211,1,"2014_Mar_13_1503",NA
"97",2,"down",1,0,1,0,4,5,45,9,1,0.600057057871,2,1,0.564251512014,2,1.36399186406,0.079934211,0.804347826087,0.079934211,"metacognition_realexp","ab",85.0860733211,1,"2014_Mar_13_1503",NA
"98",2,"down",1,0,1,0,4,6,46,1,2,0.306006900075,2,1,0.705404288889,1,0.681008391974,0.079934211,0.808510638298,0.079934211,"metacognition_realexp","ab",85.0860733211,1,"2014_Mar_13_1503",NA
"99",1,"left",1,0,1,0,4,7,47,8,2,3.58802061937,1,1,0.43474978276,1,0.517132953693,0.079934211,0.8125,0.079934211,"metacognition_realexp","ab",85.0860733211,1,"2014_Mar_13_1503",NA
"100",1,"left",1,0,1,0,4,8,48,4,2,0.164812927573,1,1,0.564255362073,2,1.04633160633,0.079934211,0.816326530612,0.079934211,"metacognition_realexp","ab",85.0860733211,1,"2014_Mar_13_1503",NA
"101",2,"down",1,0,1,0,4,9,49,5,2,0.600073998128,2,1,0.352596075327,1,0.458007987332,0.079934211,0.82,0.079934211,"metacognition_realexp","ab",85.0860733211,1,"2014_Mar_13_1503",NA
"102",NA,"",1,0,1,0,NA,NA,NA,NA,NA,NA,NA,NA,NA,NA,NA,NA,NA,0.079934211,"metacognition_realexp","ab",85.0860733211,1,"2014_Mar_13_1503",NA
"103",1,"left",2,0,2,0,0,0,0,4,1,0.470735126357,1,1,0.552230473753,2,0.399072058854,0.079934211,1,0.079934211,"metacognition_realexp","ab",85.0860733211,1,"2014_Mar_13_1503",NA
"104",2,"down",2,0,2,0,0,1,1,9,1,0.447122331379,2,1,2.68172835295,2,1.19932947378,0.079934211,1,0.079934211,"metacognition_realexp","ab",85.0860733211,1,"2014_Mar_13_1503",NA
"105",2,"down",2,0,2,0,0,2,2,7,2,0.623574756397,2,1,0.469094231343,1,0.55339588652,0.079934211,1,0.079934211,"metacognition_realexp","ab",85.0860733211,1,"2014_Mar_13_1503",NA
"106",1,"left",2,0,2,0,0,3,3,2,2,0.882389562028,1,1,0.41128560005,1,1.59926702583,0.079934211,1,0.079934211,"metacognition_realexp","ab",85.0860733211,1,"2014_Mar_13_1503",NA
"107",1,"left",2,0,2,0,0,4,4,0,1,0.729509121367,1,1,0.764166194713,1,0.528743190691,0.079934211,1,0.079934211,"metacognition_realexp","ab",85.0860733211,1,"2014_Mar_13_1503",NA
"108",2,"down",2,0,2,0,0,5,5,3,1,0.422916627365,2,1,0.91774811607,1,0.622872120686,0.079934211,1,0.079934211,"metacognition_realexp","ab",85.0860733211,1,"2014_Mar_13_1503",NA
"109",1,"left",2,0,2,0,0,6,6,8,1,0.258914522152,1,1,0.328959794992,1,0.434722447342,0.079934211,1,0.079934211,"metacognition_realexp","ab",85.0860733211,1,"2014_Mar_13_1503",NA
"110",1,"left",2,0,2,0,0,7,7,6,2,0.494200849093,1,1,0.599749053175,1,1.293145394,0.079934211,1,0.079934211,"metacognition_realexp","ab",85.0860733211,1,"2014_Mar_13_1503",NA
"111",2,"down",2,0,2,0,0,8,8,5,2,0.529380760408,2,1,0.434897625015,1,0.72876875508,0.079934211,1,0.079934211,"metacognition_realexp","ab",85.0860733211,1,"2014_Mar_13_1503",NA
"112",2,"down",2,0,2,0,0,9,9,1,2,2.41166367581,2,1,0.43481600377,2,1.39929228221,0.079934211,1,0.079934211,"metacognition_realexp","ab",85.0860733211,1,"2014_Mar_13_1503",NA
"113",2,"down",2,0,2,0,1,0,10,3,1,2.34211544555,2,1,1.71712579258,1,0.858180392959,0.079934211,1,0.079934211,"metacognition_realexp","ab",85.0860733211,1,"2014_Mar_13_1503",NA
"114",1,"left",2,0,2,0,1,1,11,8,2,1.00027720422,1,1,0.693064465768,2,1.03493081252,0.079934211,1,0.079934211,"metacognition_realexp","ab",85.0860733211,1,"2014_Mar_13_1503",NA
"115",1,"left",2,0,2,0,1,2,12,4,1,0.340581197161,1,1,0.799690686283,2,1.07030322677,0.079934211,1,0.079934211,"metacognition_realexp","ab",85.0860733211,1,"2014_Mar_13_1503",NA
"116",2,"down",2,0,2,0,1,3,13,9,1,0.388450516928,1,0,0.775010655037,1,0.388271874204,0.079934211,0.928571428571,0.079934211,"metacognition_realexp","ab",85.0860733211,1,"2014_Mar_13_1503",NA
"117",2,"down",2,0,2,0,1,4,14,5,1,3.46946576201,1,0,2.05835225958,1,0.59910339833,0.079934211,0.866666666667,0.079934211,"metacognition_realexp","ab",85.0860733211,1,"2014_Mar_13_1503",NA
"118",1,"left",2,0,2,0,1,5,15,2,2,0.25902848389,1,1,0.846792304348,1,0.810699929121,0.079934211,0.875,0.079934211,"metacognition_realexp","ab",85.0860733211,1,"2014_Mar_13_1503",NA
"119",1,"left",2,0,2,0,1,6,16,0,1,1.95300887862,2,0,0.30568580518,2,0.457169059542,0.079934211,0.823529411765,0.079934211,"metacognition_realexp","ab",85.0860733211,1,"2014_Mar_13_1503",NA
"120",1,"left",2,0,2,0,1,7,17,6,1,1.45887001547,2,0,0.540698777953,1,0.387543828107,0.079934211,0.777777777778,0.079934211,"metacognition_realexp","ab",85.0860733211,1,"2014_Mar_13_1503",NA
"121",2,"down",2,0,2,0,1,8,18,7,1,1.37650686485,2,1,0.352527929288,2,0.293461868825,0.079934211,0.789473684211,0.079934211,"metacognition_realexp","ab",85.0860733211,1,"2014_Mar_13_1503",NA
"122",2,"down",2,0,2,0,1,9,19,1,2,0.295109693947,2,1,0.622283831717,2,0.541451079422,0.079934211,0.8,0.079934211,"metacognition_realexp","ab",85.0860733211,1,"2014_Mar_13_1503",NA
"123",1,"left",2,0,2,0,2,0,20,6,1,1.50588115716,2,0,0.55336431604,1,0.610274343631,0.079934211,0.761904761905,0.079934211,"metacognition_realexp","ab",85.0860733211,1,"2014_Mar_13_1503",NA
"124",1,"left",2,0,2,0,2,1,21,8,1,1.4235222416,1,1,0.505412220009,2,0.434676631645,0.079934211,0.772727272727,0.079934211,"metacognition_realexp","ab",85.0860733211,1,"2014_Mar_13_1503",NA
"125",2,"down",2,0,2,0,2,2,22,7,1,0.540334947407,1,0,1.15324696625,1,0.352325031196,0.079934211,0.739130434783,0.079934211,"metacognition_realexp","ab",85.0860733211,1,"2014_Mar_13_1503",NA
"126",2,"down",2,0,2,0,2,3,23,5,1,0.588308218757,2,1,0.352660756313,2,0.457953316498,0.079934211,0.75,0.079934211,"metacognition_realexp","ab",85.0860733211,1,"2014_Mar_13_1503",NA
"127",1,"left",2,0,2,0,2,4,24,4,2,0.859390081401,1,1,0.4936372005,1,0.528649634263,0.079934211,0.76,0.079934211,"metacognition_realexp","ab",85.0860733211,1,"2014_Mar_13_1503",NA
"128",1,"left",2,0,2,0,2,5,25,2,2,0.270786948147,1,1,0.493539024003,1,0.646442565017,0.079934211,0.769230769231,0.079934211,"metacognition_realexp","ab",85.0860733211,1,"2014_Mar_13_1503",NA
"129",2,"down",2,0,2,0,2,6,26,3,1,2.67046962631,1,0,0.575234959457,2,0.482419669486,0.079934211,0.740740740741,0.079934211,"metacognition_realexp","ab",85.0860733211,1,"2014_Mar_13_1503",NA
"130",2,"down",2,0,2,0,2,7,27,9,2,2.51757725047,2,1,0.446579088097,1,0.728744499711,0.079934211,0.75,0.079934211,"metacognition_realexp","ab",85.0860733211,1,"2014_Mar_13_1503",NA
"131",1,"left",2,0,2,0,2,8,28,0,1,0.399931006948,1,1,1.08196659458,1,0.39918140052,0.079934211,0.758620689655,0.079934211,"metacognition_realexp","ab",85.0860733211,1,"2014_Mar_13_1503",NA
"132",2,"down",2,0,2,0,2,9,29,1,1,0.717712926533,2,1,0.764236265783,1,0.434568444996,0.079934211,0.766666666667,0.079934211,"metacognition_realexp","ab",85.0860733211,1,"2014_Mar_13_1503",NA
"133",2,"down",2,0,2,0,3,0,30,5,1,1.17649439066,1,0,3.658182934,2,0.575755102387,0.079934211,0.741935483871,0.079934211,"metacognition_realexp","ab",85.0860733211,1,"2014_Mar_13_1503",NA
"134",1,"left",2,0,2,0,3,1,31,2,1,0.823652681585,1,1,0.764189680071,1,1.0933550682,0.079934211,0.75,0.079934211,"metacognition_realexp","ab",85.0860733211,1,"2014_Mar_13_1503",NA
"135",1,"left",2,0,2,0,3,2,32,6,1,0.669687679389,1,1,0.424005038958,1,0.375772658654,0.079934211,0.757575757576,0.079934211,"metacognition_realexp","ab",85.0860733211,1,"2014_Mar_13_1503",NA
"136",1,"left",2,0,2,0,3,3,33,8,2,0.292692242094,1,1,0.599593510804,2,2.81071571436,0.079934211,0.764705882353,0.079934211,"metacognition_realexp","ab",85.0860733211,1,"2014_Mar_13_1503",NA
"137",2,"down",2,0,2,0,3,4,34,3,2,3.56476279981,2,1,0.822840319201,1,0.375737623121,0.079934211,0.771428571429,0.079934211,"metacognition_realexp","ab",85.0860733211,1,"2014_Mar_13_1503",NA
"138",1,"left",2,0,2,0,3,5,35,0,1,1.16467779051,1,1,1.09365806782,2,0.646367873878,0.079934211,0.777777777778,0.079934211,"metacognition_realexp","ab",85.0860733211,1,"2014_Mar_13_1503",NA
"139",1,"left",2,0,2,0,3,6,36,4,1,3.5998360645,1,1,0.387914203751,2,0.352162173713,0.079934211,0.783783783784,0.079934211,"metacognition_realexp","ab",85.0860733211,1,"2014_Mar_13_1503",NA
"140",2,"down",2,0,2,0,3,7,37,7,1,0.717622450155,2,1,0.458433033811,2,0.611060910624,0.079934211,0.789473684211,0.079934211,"metacognition_realexp","ab",85.0860733211,1,"2014_Mar_13_1503",NA
"141",2,"down",2,0,2,0,3,8,38,9,1,3.24720456863,1,0,0.905065637726,2,0.775819552369,0.079934211,0.769230769231,0.079934211,"metacognition_realexp","ab",85.0860733211,1,"2014_Mar_13_1503",NA
"142",2,"down",2,0,2,0,3,9,39,1,1,0.541220845911,1,0,0.434902630092,1,0.658168688782,0.079934211,0.75,0.079934211,"metacognition_realexp","ab",85.0860733211,1,"2014_Mar_13_1503",NA
"143",1,"left",2,0,2,0,4,0,40,4,2,0.305972249547,1,1,0.729050964383,1,0.822657441413,0.079934211,0.756097560976,0.079934211,"metacognition_realexp","ab",85.0860733211,1,"2014_Mar_13_1503",NA
"144",1,"left",2,0,2,0,4,1,41,6,2,0.258902971975,1,1,0.328982125333,1,0.375855434915,0.079934211,0.761904761905,0.079934211,"metacognition_realexp","ab",85.0860733211,1,"2014_Mar_13_1503",NA
"145",1,"left",2,0,2,0,4,2,42,0,2,1.00001732526,1,1,0.693581913656,1,0.834653839298,0.079934211,0.767441860465,0.079934211,"metacognition_realexp","ab",85.0860733211,1,"2014_Mar_13_1503",NA
"146",2,"down",2,0,2,0,4,3,43,3,1,1.7411220534,1,0,0.634849268276,2,0.411152773024,0.079934211,0.75,0.079934211,"metacognition_realexp","ab",85.0860733211,1,"2014_Mar_13_1503",NA
"147",2,"down",2,0,2,0,4,4,44,7,2,0.388404316223,2,1,0.75247164143,1,0.481566111475,0.079934211,0.755555555556,0.079934211,"metacognition_realexp","ab",85.0860733211,1,"2014_Mar_13_1503",NA
"148",2,"down",2,0,2,0,4,5,45,1,2,1.588258168,2,1,1.10520285382,1,0.622903306161,0.079934211,0.760869565217,0.079934211,"metacognition_realexp","ab",85.0860733211,1,"2014_Mar_13_1503",NA
"149",1,"left",2,0,2,0,4,6,46,2,2,0.494151183335,1,1,0.423105665246,1,0.469970119695,0.079934211,0.765957446809,0.079934211,"metacognition_realexp","ab",85.0860733211,1,"2014_Mar_13_1503",NA
"150",1,"left",2,0,2,0,4,7,47,8,2,2.6587473526,1,1,0.423060234552,2,0.552272054389,0.079934211,0.770833333333,0.079934211,"metacognition_realexp","ab",85.0860733211,1,"2014_Mar_13_1503",NA
"151",2,"down",2,0,2,0,4,8,48,9,1,2.54135405794,2,1,0.693399035868,2,0.458072283313,0.079934211,0.775510204082,0.079934211,"metacognition_realexp","ab",85.0860733211,1,"2014_Mar_13_1503",NA
"152",2,"down",2,0,2,0,4,9,49,5,1,0.294200695091,1,0,0.681925860959,2,0.387596188904,0.079934211,0.76,0.079934211,"metacognition_realexp","ab",85.0860733211,1,"2014_Mar_13_1503",NA
"153",NA,"",2,0,2,0,NA,NA,NA,NA,NA,NA,NA,NA,NA,NA,NA,NA,NA,0.079934211,"metacognition_realexp","ab",85.0860733211,1,"2014_Mar_13_1503",NA
"154",1,"left",3,0,3,0,0,0,0,2,1,0.776571083827,1,1,0.893355299202,1,0.799078141947,0.079934211,1,0.079934211,"metacognition_realexp","ab",85.0860733211,1,"2014_Mar_13_1503",NA
"155",2,"down",3,0,3,0,0,1,1,3,2,0.658649176106,2,1,0.599688992257,1,0.363808986269,0.079934211,1,0.079934211,"metacognition_realexp","ab",85.0860733211,1,"2014_Mar_13_1503",NA
"156",1,"left",3,0,3,0,0,2,2,0,2,0.164797912345,1,1,0.481906456664,2,0.446423160722,0.079934211,1,0.079934211,"metacognition_realexp","ab",85.0860733211,1,"2014_Mar_13_1503",NA
"157",1,"left",3,0,3,0,0,3,3,6,1,0.600107108632,1,1,0.717162753146,2,0.928033162865,0.079934211,1,0.079934211,"metacognition_realexp","ab",85.0860733211,1,"2014_Mar_13_1503",NA
"158",1,"left",3,0,3,0,0,4,4,4,2,1.50588154216,1,1,0.528881792803,1,0.458073438329,0.079934211,1,0.079934211,"metacognition_realexp","ab",85.0860733211,1,"2014_Mar_13_1503",NA
"159",1,"left",3,0,3,0,0,5,5,8,2,1.85880256244,1,1,0.423052919441,1,0.728098459862,0.079934211,1,0.079934211,"metacognition_realexp","ab",85.0860733211,1,"2014_Mar_13_1503",NA
"160",2,"down",3,0,3,0,0,6,6,7,2,0.317625992207,2,1,0.423158796057,1,0.55228206454,0.079934211,1,0.079934211,"metacognition_realexp","ab",85.0860733211,1,"2014_Mar_13_1503",NA
"161",2,"down",3,0,3,0,0,7,7,1,2,0.32950149825,2,1,0.387752501287,2,0.39936042825,0.079934211,1,0.079934211,"metacognition_realexp","ab",85.0860733211,1,"2014_Mar_13_1503",NA
"162",2,"down",3,0,3,0,0,8,8,9,2,1.35303459701,2,1,1.25824653697,1,0.246420696683,0.079934211,1,0.079934211,"metacognition_realexp","ab",85.0860733211,1,"2014_Mar_13_1503",NA
"163",2,"down",3,0,3,0,0,9,9,5,2,0.564832870878,2,1,1.69257011823,1,0.600235315587,0.079934211,1,0.079934211,"metacognition_realexp","ab",85.0860733211,1,"2014_Mar_13_1503",NA
"164",1,"left",3,0,3,0,1,0,10,0,1,0.329478782904,1,1,0.881860178957,1,0.316350852769,0.079934211,1,0.079934211,"metacognition_realexp","ab",85.0860733211,1,"2014_Mar_13_1503",NA
"165",2,"down",3,0,3,0,1,1,11,3,2,0.270677606481,2,1,0.68188389532,2,1.32868952087,0.079934211,1,0.079934211,"metacognition_realexp","ab",85.0860733211,1,"2014_Mar_13_1503",NA
"166",1,"left",3,0,3,0,1,2,12,6,2,0.564759719762,1,1,0.34074251462,2,0.399353498144,0.079934211,1,0.079934211,"metacognition_realexp","ab",85.0860733211,1,"2014_Mar_13_1503",NA
"167",2,"down",3,0,3,0,1,3,13,5,2,3.18810193261,2,1,0.42299709359,1,0.340553861744,0.079934211,1,0.079934211,"metacognition_realexp","ab",85.0860733211,1,"2014_Mar_13_1503",NA
"168",1,"left",3,0,3,0,1,4,14,4,2,0.553039756092,1,1,0.364244427907,1,0.799295670262,0.079934211,1,0.079934211,"metacognition_realexp","ab",85.0860733211,1,"2014_Mar_13_1503",NA
"169",1,"left",3,0,3,0,1,5,15,8,2,4.49390092952,1,1,0.352455163178,1,0.399377753512,0.079934211,1,0.079934211,"metacognition_realexp","ab",85.0860733211,1,"2014_Mar_13_1503",NA
"170",2,"down",3,0,3,0,1,6,16,7,1,0.705974867586,2,1,0.434816773781,2,0.728774915173,0.079934211,1,0.079934211,"metacognition_realexp","ab",85.0860733211,1,"2014_Mar_13_1503",NA
"171",2,"down",3,0,3,0,1,7,17,1,2,3.44691250318,2,1,0.446474751507,1,0.575886389388,0.079934211,1,0.079934211,"metacognition_realexp","ab",85.0860733211,1,"2014_Mar_13_1503",NA
"172",1,"left",3,0,3,0,1,8,18,2,2,0.553111367182,1,1,0.540553630739,1,0.881375456569,0.079934211,1,0.079934211,"metacognition_realexp","ab",85.0860733211,1,"2014_Mar_13_1503",NA
"173",2,"down",3,0,3,0,1,9,19,9,2,0.399870176021,2,1,0.540721108293,2,0.540437743974,0.079934211,1,0.079934211,"metacognition_realexp","ab",85.0860733211,1,"2014_Mar_13_1503",NA
"174",1,"left",3,0,3,0,2,0,20,6,1,1.35295182075,1,1,0.352500978877,2,0.30525613863,0.079934211,1,0.079934211,"metacognition_realexp","ab",85.0860733211,1,"2014_Mar_13_1503",NA
"175",2,"down",3,0,3,0,2,1,21,3,1,4.08214831735,2,1,1.41121976404,2,0.834614568699,0.079934211,1,0.079934211,"metacognition_realexp","ab",85.0860733211,1,"2014_Mar_13_1503",NA
"176",1,"left",3,0,3,0,2,2,22,8,2,4.76449152467,1,1,0.352926025358,1,0.375325281833,0.079934211,1,0.079934211,"metacognition_realexp","ab",85.0860733211,1,"2014_Mar_13_1503",NA
"177",2,"down",3,0,3,0,2,3,23,1,1,0.894186141868,2,1,0.646573467013,1,0.281690699374,0.079934211,1,0.079934211,"metacognition_realexp","ab",85.0860733211,1,"2014_Mar_13_1503",NA
"178",1,"left",3,0,3,0,2,4,24,2,2,0.21113221371,1,1,0.529614073967,2,0.364029594632,0.079934211,1,0.079934211,"metacognition_realexp","ab",85.0860733211,1,"2014_Mar_13_1503",NA
"179",1,"left",3,0,3,0,2,5,25,0,2,0.258928382364,1,1,0.340733274477,2,0.340517671191,0.079934211,1,0.079934211,"metacognition_realexp","ab",85.0860733211,1,"2014_Mar_13_1503",NA
"180",2,"down",3,0,3,0,2,6,26,9,2,0.411870423965,2,1,2.02293710968,1,0.481666983012,0.079934211,1,0.079934211,"metacognition_realexp","ab",85.0860733211,1,"2014_Mar_13_1503",NA
"181",1,"left",3,0,3,0,2,7,27,4,2,0.423561512196,1,1,0.529255248495,1,0.586551821983,0.079934211,1,0.079934211,"metacognition_realexp","ab",85.0860733211,1,"2014_Mar_13_1503",NA
"182",2,"down",3,0,3,0,2,8,28,5,2,0.823595315711,2,1,0.728905432163,2,3.95206638425,0.079934211,1,0.079934211,"metacognition_realexp","ab",85.0860733211,1,"2014_Mar_13_1503",NA
"183",2,"down",3,0,3,0,2,9,29,7,2,0.329498033198,2,1,0.587726859896,1,0.328689520871,0.079934211,1,0.079934211,"metacognition_realexp","ab",85.0860733211,1,"2014_Mar_13_1503",NA
"184",2,"down",3,0,3,0,3,0,30,5,2,0.764763338817,2,1,0.622952586911,1,0.399354268155,0.079934211,1,0.079934211,"metacognition_realexp","ab",85.0860733211,1,"2014_Mar_13_1503",NA
"185",1,"left",3,0,3,0,3,1,31,2,1,0.682325882059,2,0,0.48191146174,1,0.246398751349,0.079934211,0.96875,0.079934211,"metacognition_realexp","ab",85.0860733211,1,"2014_Mar_13_1503",NA
"186",2,"down",3,0,3,0,3,2,32,9,2,0.235387198478,2,1,0.38783412253,2,2.10399162535,0.079934211,0.969696969697,0.079934211,"metacognition_realexp","ab",85.0860733211,1,"2014_Mar_13_1503",NA
"187",2,"down",3,0,3,0,3,3,33,1,2,0.576538974337,2,1,0.376019832422,2,2.36399725414,0.079934211,0.970588235294,0.079934211,"metacognition_realexp","ab",85.0860733211,1,"2014_Mar_13_1503",NA
"188",1,"left",3,0,3,0,3,4,34,6,1,1.16474016146,2,0,0.517156054044,1,0.387592338844,0.079934211,0.942857142857,0.079934211,"metacognition_realexp","ab",85.0860733211,1,"2014_Mar_13_1503",NA
"189",1,"left",3,0,3,0,3,5,35,0,1,0.376570390816,1,1,0.658334241305,1,0.422868116624,0.079934211,0.944444444444,0.079934211,"metacognition_realexp","ab",85.0860733211,1,"2014_Mar_13_1503",NA
"190",2,"down",3,0,3,0,3,6,36,7,2,1.23527015669,2,1,0.729035949153,1,0.787434024431,0.079934211,0.945945945946,0.079934211,"metacognition_realexp","ab",85.0860733211,1,"2014_Mar_13_1503",NA
"191",2,"down",3,0,3,0,3,7,37,3,2,4.41152661372,2,1,0.845931046219,1,0.47068738563,0.079934211,0.947368421053,0.079934211,"metacognition_realexp","ab",85.0860733211,1,"2014_Mar_13_1503",NA
"192",1,"left",3,0,3,0,3,8,38,4,2,0.364778046041,1,1,0.457425088445,2,0.365061795366,0.079934211,0.948717948718,0.079934211,"metacognition_realexp","ab",85.0860733211,1,"2014_Mar_13_1503",NA
"193",1,"left",3,0,3,0,3,9,39,8,2,0.447258623459,1,1,0.599345182018,1,0.352166793784,0.079934211,0.95,0.079934211,"metacognition_realexp","ab",85.0860733211,1,"2014_Mar_13_1503",NA
"194",2,"down",3,0,3,0,4,0,40,5,1,0.600184494813,1,0,0.505274002902,1,0.622872890697,0.079934211,0.926829268293,0.079934211,"metacognition_realexp","ab",85.0860733211,1,"2014_Mar_13_1503",NA
"195",2,"down",3,0,3,0,4,1,41,1,1,0.646452575169,2,1,0.776624984648,1,0.481772474621,0.079934211,0.928571428571,0.079934211,"metacognition_realexp","ab",85.0860733211,1,"2014_Mar_13_1503",NA
"196",1,"left",3,0,3,0,4,2,42,2,1,1.00006121593,1,1,0.446665714418,2,0.258073284327,0.079934211,0.93023255814,0.079934211,"metacognition_realexp","ab",85.0860733211,1,"2014_Mar_13_1503",NA
"197",1,"left",3,0,3,0,4,3,43,8,2,0.858834132927,1,1,0.552512683056,2,0.587538592024,0.079934211,0.931818181818,0.079934211,"metacognition_realexp","ab",85.0860733211,1,"2014_Mar_13_1503",NA
"198",1,"left",3,0,3,0,4,4,44,0,2,0.435388507498,1,1,0.505420690139,2,0.446432785868,0.079934211,0.933333333333,0.079934211,"metacognition_realexp","ab",85.0860733211,1,"2014_Mar_13_1503",NA
"199",2,"down",3,0,3,0,4,5,45,9,1,0.682212305328,2,1,0.340841076122,1,0.281735745062,0.079934211,0.934782608696,0.079934211,"metacognition_realexp","ab",85.0860733211,1,"2014_Mar_13_1503",NA
"200",1,"left",3,0,3,0,4,6,46,4,2,0.458879640619,1,1,0.434897240008,2,1.24628517462,0.079934211,0.936170212766,0.079934211,"metacognition_realexp","ab",85.0860733211,1,"2014_Mar_13_1503",NA
"201",2,"down",3,0,3,0,4,7,47,7,1,0.564679638541,1,0,0.870095939614,1,0.975743860216,0.079934211,0.916666666667,0.079934211,"metacognition_realexp","ab",85.0860733211,1,"2014_Mar_13_1503",NA
"202",2,"down",3,0,3,0,4,8,48,3,1,0.600085548303,2,1,0.281855866893,1,0.32877268214,0.079934211,0.918367346939,0.079934211,"metacognition_realexp","ab",85.0860733211,1,"2014_Mar_13_1503",NA
"203",1,"left",3,0,3,0,4,9,49,6,1,1.16473130633,1,1,0.423158026044,1,0.575700816558,0.079934211,0.92,0.079934211,"metacognition_realexp","ab",85.0860733211,1,"2014_Mar_13_1503",NA
"204",NA,"",3,0,3,0,NA,NA,NA,NA,NA,NA,NA,NA,NA,NA,NA,NA,NA,0.079934211,"metacognition_realexp","ab",85.0860733211,1,"2014_Mar_13_1503",NA
"205",1,"left",4,0,4,0,0,0,0,6,1,0.470675835453,2,0,0.316969172196,1,0.234496679901,0.079934211,0,0.079934211,"metacognition_realexp","ab",85.0860733211,1,"2014_Mar_13_1503",NA
"206",2,"down",4,0,4,0,0,1,1,7,1,0.364766880872,2,1,0.32900099062,2,0.434631585958,0.079934211,0.5,0.079934211,"metacognition_realexp","ab",85.0860733211,1,"2014_Mar_13_1503",NA
"207",2,"down",4,0,4,0,0,2,2,3,2,0.458937776506,2,1,0.658337706358,1,0.493532093897,0.079934211,0.666666666667,0.079934211,"metacognition_realexp","ab",85.0860733211,1,"2014_Mar_13_1503",NA
"208",1,"left",4,0,4,0,0,3,3,0,2,0.505941988085,1,1,0.282028734528,2,0.528595733442,0.079934211,0.75,0.079934211,"metacognition_realexp","ab",85.0860733211,1,"2014_Mar_13_1503",NA
"209",2,"down",4,0,4,0,0,4,4,5,2,0.305953769266,2,1,0.752477416519,1,0.328746886746,0.079934211,0.8,0.079934211,"metacognition_realexp","ab",85.0860733211,1,"2014_Mar_13_1503",NA
"210",1,"left",4,0,4,0,0,5,5,2,2,5.19970677953,1,1,0.540745748669,1,0.39930537241,0.079934211,0.833333333333,0.079934211,"metacognition_realexp","ab",85.0860733211,1,"2014_Mar_13_1503",NA
"211",1,"left",4,0,4,0,0,6,6,8,1,0.494215094308,1,1,0.681882355297,1,0.411130442684,0.079934211,0.857142857143,0.079934211,"metacognition_realexp","ab",85.0860733211,1,"2014_Mar_13_1503",NA
"212",1,"left",4,0,4,0,0,7,7,4,1,2.35301226667,1,1,0.657585789895,2,2.14095988893,0.079934211,0.875,0.079934211,"metacognition_realexp","ab",85.0860733211,1,"2014_Mar_13_1503",NA
"213",2,"down",4,0,4,0,0,8,8,9,1,0.317736873898,2,1,0.305402440859,1,0.269954950463,0.079934211,0.888888888889,0.079934211,"metacognition_realexp","ab",85.0860733211,1,"2014_Mar_13_1503",NA
"214",2,"down",4,0,4,0,0,9,9,1,2,0.353038062065,2,1,0.340703629026,2,0.352262660244,0.079934211,0.9,0.079934211,"metacognition_realexp","ab",85.0860733211,1,"2014_Mar_13_1503",NA
"215",1,"left",4,0,4,0,1,0,10,8,2,1.69412015186,1,1,0.446557142763,1,1.24638720117,0.079934211,0.909090909091,0.079934211,"metacognition_realexp","ab",85.0860733211,1,"2014_Mar_13_1503",NA
"216",1,"left",4,0,4,0,1,1,11,4,1,0.83538997052,1,1,0.752429290786,1,0.481686618314,0.079934211,0.916666666667,0.079934211,"metacognition_realexp","ab",85.0860733211,1,"2014_Mar_13_1503",NA
"217",2,"down",4,0,4,0,1,2,12,1,2,2.30581593716,1,0,1.1642115484,1,2.4580191525,0.079934211,0.846153846154,0.079934211,"metacognition_realexp","ab",85.0860733211,1,"2014_Mar_13_1503",NA
"218",2,"down",4,0,4,0,1,3,13,9,2,0.799986370794,2,1,0.611348510009,1,0.328061191294,0.079934211,0.857142857143,0.079934211,"metacognition_realexp","ab",85.0860733211,1,"2014_Mar_13_1503",NA
"219",1,"left",4,0,4,0,1,4,14,0,2,0.447107701157,1,1,0.505424155192,1,0.411103492272,0.079934211,0.866666666667,0.079934211,"metacognition_realexp","ab",85.0860733211,1,"2014_Mar_13_1503",NA
"220",1,"left",4,0,4,0,1,5,15,6,2,0.600010472159,1,1,0.505467275849,2,0.693439846491,0.079934211,0.875,0.079934211,"metacognition_realexp","ab",85.0860733211,1,"2014_Mar_13_1503",NA
"221",1,"left",4,0,4,0,1,6,16,2,2,0.400118504807,1,1,0.4348113837,2,5.51663437109,0.079934211,0.882352941176,0.079934211,"metacognition_realexp","ab",85.0860733211,1,"2014_Mar_13_1503",NA
"222",2,"down",4,0,4,0,1,7,17,3,1,0.035413224874,1,0,0.634804607595,1,1.49350052342,0.079934211,0.833333333333,0.079934211,"metacognition_realexp","ab",85.0860733211,1,"2014_Mar_13_1503",NA
"223",2,"down",4,0,4,0,1,8,18,5,1,0.800041426632,2,1,0.458365657785,2,0.446410070523,0.079934211,0.842105263158,0.079934211,"metacognition_realexp","ab",85.0860733211,1,"2014_Mar_13_1503",NA
"224",2,"down",4,0,4,0,1,9,19,7,2,0.305954924283,2,1,0.375952456396,2,0.54061061161,0.079934211,0.85,0.079934211,"metacognition_realexp","ab",85.0860733211,1,"2014_Mar_13_1503",NA
"225",2,"down",4,0,4,0,2,0,20,7,1,0.823415517969,1,0,1.09378049968,2,0.470004770223,0.079934211,0.809523809524,0.079934211,"metacognition_realexp","ab",85.0860733211,1,"2014_Mar_13_1503",NA
"226",1,"left",4,0,4,0,2,1,21,2,2,0.564767419881,1,1,0.364253283042,2,0.387554993276,0.079934211,0.818181818182,0.079934211,"metacognition_realexp","ab",85.0860733211,1,"2014_Mar_13_1503",NA
"227",2,"down",4,0,4,0,2,2,22,5,1,1.12939662265,2,1,0.45835680265,2,0.328730331494,0.079934211,0.826086956522,0.079934211,"metacognition_realexp","ab",85.0860733211,1,"2014_Mar_13_1503",NA
"228",1,"left",4,0,4,0,2,3,23,4,2,0.835391125538,1,1,0.752420820656,2,0.481727043929,0.079934211,0.833333333333,0.079934211,"metacognition_realexp","ab",85.0860733211,1,"2014_Mar_13_1503",NA
"229",1,"left",4,0,4,0,2,4,24,0,1,2.30577628156,1,1,0.481897986534,2,0.364076950355,0.079934211,0.84,0.079934211,"metacognition_realexp","ab",85.0860733211,1,"2014_Mar_13_1503",NA
"230",2,"down",4,0,4,0,2,5,25,3,1,1.83428153862,2,1,0.459342032671,1,0.375840034681,0.079934211,0.846153846154,0.079934211,"metacognition_realexp","ab",85.0860733211,1,"2014_Mar_13_1503",NA
"231",2,"down",4,0,4,0,2,6,26,9,1,2.09409543449,2,1,0.564220711543,1,0.352298080785,0.079934211,0.851851851852,0.079934211,"metacognition_realexp","ab",85.0860733211,1,"2014_Mar_13_1503",NA
"232",1,"left",4,0,4,0,2,7,27,8,1,1.18824014972,1,1,1.12894308574,1,1.23457060103,0.079934211,0.857142857143,0.079934211,"metacognition_realexp","ab",85.0860733211,1,"2014_Mar_13_1503",NA
"233",2,"down",4,0,4,0,2,8,28,1,1,0.83534338481,2,1,0.387742876141,2,0.38758540874,0.079934211,0.862068965517,0.079934211,"metacognition_realexp","ab",85.0860733211,1,"2014_Mar_13_1503",NA
"234",1,"left",4,0,4,0,2,9,29,6,1,2.70583896052,2,0,0.411320635583,2,0.411150462987,0.079934211,0.833333333333,0.079934211,"metacognition_realexp","ab",85.0860733211,1,"2014_Mar_13_1503",NA
"235",2,"down",4,0,4,0,3,0,30,5,1,0.623888151176,2,1,0.681957046436,2,0.740379377085,0.079934211,0.838709677419,0.079934211,"metacognition_realexp","ab",85.0860733211,1,"2014_Mar_13_1503",NA
"236",2,"down",4,0,4,0,3,1,31,9,2,0.470650040061,2,1,0.517193784619,1,0.693475267029,0.079934211,0.84375,0.079934211,"metacognition_realexp","ab",85.0860733211,1,"2014_Mar_13_1503",NA
"237",2,"down",4,0,4,0,3,2,32,1,2,0.611832462386,2,1,0.505399514816,1,0.352300005812,0.079934211,0.848484848485,0.079934211,"metacognition_realexp","ab",85.0860733211,1,"2014_Mar_13_1503",NA
"238",2,"down",4,0,4,0,3,3,33,7,1,1.2941491043,1,0,1.18767842616,1,0.505182756511,0.079934211,0.823529411765,0.079934211,"metacognition_realexp","ab",85.0860733211,1,"2014_Mar_13_1503",NA
"239",1,"left",4,0,4,0,3,4,34,8,1,0.764736003401,1,1,0.505398359797,1,0.387598498939,0.079934211,0.828571428571,0.079934211,"metacognition_realexp","ab",85.0860733211,1,"2014_Mar_13_1503",NA
"240",2,"down",4,0,4,0,3,5,35,3,1,0.90590880058,1,0,0.363777415787,2,0.305650769646,0.079934211,0.805555555556,0.079934211,"metacognition_realexp","ab",85.0860733211,1,"2014_Mar_13_1503",NA
"241",1,"left",4,0,4,0,3,6,36,2,1,0.576568619788,1,1,0.94081805277,1,0.493318800645,0.079934211,0.810810810811,0.079934211,"metacognition_realexp","ab",85.0860733211,1,"2014_Mar_13_1503",NA
"242",1,"left",4,0,4,0,3,7,37,0,1,0.388218743396,2,0,1.16425928913,1,0.552238558877,0.079934211,0.789473684211,0.079934211,"metacognition_realexp","ab",85.0860733211,1,"2014_Mar_13_1503",NA
"243",1,"left",4,0,4,0,3,8,38,6,2,0.517772833446,1,1,0.434726682408,1,0.340572727031,0.079934211,0.794871794872,0.079934211,"metacognition_realexp","ab",85.0860733211,1,"2014_Mar_13_1503",NA
"244",1,"left",4,0,4,0,3,9,39,4,1,0.964816238624,1,1,0.352376236977,2,0.293504989484,0.079934211,0.8,0.079934211,"metacognition_realexp","ab",85.0860733211,1,"2014_Mar_13_1503",NA
"245",1,"left",4,0,4,0,4,0,40,4,2,0.505993193867,1,1,0.411279824961,2,0.423102200191,0.079934211,0.80487804878,0.079934211,"metacognition_realexp","ab",85.0860733211,1,"2014_Mar_13_1503",NA
"246",2,"down",4,0,4,0,4,1,41,1,1,0.74119520452,1,0,0.599552700181,1,0.55231093998,0.079934211,0.785714285714,0.079934211,"metacognition_realexp","ab",85.0860733211,1,"2014_Mar_13_1503",NA
"247",1,"left",4,0,4,0,4,2,42,0,2,2.81165474368,1,1,0.44655098267,1,1.10519977377,0.079934211,0.790697674419,0.079934211,"metacognition_realexp","ab",85.0860733211,1,"2014_Mar_13_1503",NA
"248",2,"down",4,0,4,0,4,3,43,3,1,1.42354495694,2,1,0.305417456089,2,0.433775332904,0.079934211,0.795454545455,0.079934211,"metacognition_realexp","ab",85.0860733211,1,"2014_Mar_13_1503",NA
"249",2,"down",4,0,4,0,4,4,44,7,2,4.6821187489,2,1,0.517170299261,1,0.364090040553,0.079934211,0.8,0.079934211,"metacognition_realexp","ab",85.0860733211,1,"2014_Mar_13_1503",NA
"250",1,"left",4,0,4,0,4,5,45,2,1,0.506952243486,2,0,1.10441513181,1,0.516317896265,0.079934211,0.782608695652,0.079934211,"metacognition_realexp","ab",85.0860733211,1,"2014_Mar_13_1503",NA
"251",2,"down",4,0,4,0,4,6,46,9,1,0.388333090137,2,1,2.18697502043,1,1.49404030164,0.079934211,0.787234042553,0.079934211,"metacognition_realexp","ab",85.0860733211,1,"2014_Mar_13_1503",NA
"252",2,"down",4,0,4,0,4,7,47,5,1,0.541244716276,2,1,0.646672028515,1,0.281605228072,0.079934211,0.791666666667,0.079934211,"metacognition_realexp","ab",85.0860733211,1,"2014_Mar_13_1503",NA
"253",1,"left",4,0,4,0,4,8,48,8,1,0.470656970167,1,1,0.623051148414,1,0.340549626679,0.079934211,0.795918367347,0.079934211,"metacognition_realexp","ab",85.0860733211,1,"2014_Mar_13_1503",NA
"254",1,"left",4,0,4,0,4,9,49,6,2,1.188454983,1,1,0.41106460668,1,0.375846964787,0.079934211,0.8,0.079934211,"metacognition_realexp","ab",85.0860733211,1,"2014_Mar_13_1503",NA
"255",NA,"",4,0,4,0,NA,NA,NA,NA,NA,NA,NA,NA,NA,NA,NA,NA,NA,0.079934211,"metacognition_realexp","ab",85.0860733211,1,"2014_Mar_13_1503",NA
"256",1,"left",5,0,5,0,0,0,0,6,1,0.517738567924,1,1,0.493470492958,1,0.481375148564,0.079934211,1,0.079934211,"metacognition_realexp","ab",85.0860733211,1,"2014_Mar_13_1503",NA
"257",1,"left",5,0,5,0,0,1,1,0,2,0.305984569735,1,1,0.281870882121,1,0.740549934684,0.079934211,1,0.079934211,"metacognition_realexp","ab",85.0860733211,1,"2014_Mar_13_1503",NA
"258",1,"left",5,0,5,0,0,2,2,4,2,0.364815006604,1,1,0.281889362404,2,0.423005178713,0.079934211,1,0.079934211,"metacognition_realexp","ab",85.0860733211,1,"2014_Mar_13_1503",NA
"259",1,"left",5,0,5,0,0,3,3,8,2,0.470823677706,1,1,0.564073639303,2,0.481685463295,0.079934211,1,0.079934211,"metacognition_realexp","ab",85.0860733211,1,"2014_Mar_13_1503",NA
"260",2,"down",5,0,5,0,0,4,4,1,1,0.882398032159,1,0,0.399512890574,2,0.410962195119,0.079934211,0.8,0.079934211,"metacognition_realexp","ab",85.0860733211,1,"2014_Mar_13_1503",NA
"261",1,"left",5,0,5,0,0,5,5,2,2,0.458886570726,1,1,0.599553855198,2,0.375865060063,0.079934211,0.833333333333,0.079934211,"metacognition_realexp","ab",85.0860733211,1,"2014_Mar_13_1503",NA
"262",2,"down",5,0,5,0,0,6,6,9,2,2.14117087215,2,1,0.470071761245,1,0.364049229929,0.079934211,0.857142857143,0.079934211,"metacognition_realexp","ab",85.0860733211,1,"2014_Mar_13_1503",NA
"263",2,"down",5,0,5,0,0,7,7,7,2,0.458897735896,2,1,0.376045242811,2,0.41109078708,0.079934211,0.875,0.079934211,"metacognition_realexp","ab",85.0860733211,1,"2014_Mar_13_1503",NA
"264",2,"down",5,0,5,0,0,8,8,3,2,0.376591181133,2,1,0.528937233648,2,1.19925093258,0.079934211,0.888888888889,0.079934211,"metacognition_realexp","ab",85.0860733211,1,"2014_Mar_13_1503",NA
"265",2,"down",5,0,5,0,0,9,9,5,2,0.447119251332,2,1,0.434800218531,2,0.469900048625,0.079934211,0.9,0.079934211,"metacognition_realexp","ab",85.0860733211,1,"2014_Mar_13_1503",NA
"266",2,"down",5,0,5,0,1,0,10,7,2,0.258879871624,2,1,0.281890902426,2,0.246423776731,0.079934211,0.909090909091,0.079934211,"metacognition_realexp","ab",85.0860733211,1,"2014_Mar_13_1503",NA
"267",2,"down",5,0,5,0,1,1,11,1,2,0.16430702986,2,1,0.258844836089,2,0.246427241784,0.079934211,0.916666666667,0.079934211,"metacognition_realexp","ab",85.0860733211,1,"2014_Mar_13_1503",NA
"268",1,"left",5,0,5,0,1,2,12,4,2,0.694180597782,1,1,0.3525156091,2,0.35222569968,0.079934211,0.923076923077,0.079934211,"metacognition_realexp","ab",85.0860733211,1,"2014_Mar_13_1503",NA
"269",2,"down",5,0,5,0,1,3,13,9,2,0.376573470863,2,1,0.786728308673,2,0.447396070553,0.079934211,0.928571428571,0.079934211,"metacognition_realexp","ab",85.0860733211,1,"2014_Mar_13_1503",NA
"270",2,"down",5,0,5,0,1,4,14,5,2,0.129587200558,2,1,1.84646042929,1,1.2815282269,0.079934211,0.933333333333,0.079934211,"metacognition_realexp","ab",85.0860733211,1,"2014_Mar_13_1503",NA
"271",1,"left",5,0,5,0,1,5,15,6,2,0.294176054715,1,1,0.552483422609,2,0.516964706127,0.079934211,0.9375,0.079934211,"metacognition_realexp","ab",85.0860733211,1,"2014_Mar_13_1503",NA
"272",1,"left",5,0,5,0,1,6,16,2,2,2.41173836695,1,1,0.387765976491,2,0.916990424521,0.079934211,0.941176470588,0.079934211,"metacognition_realexp","ab",85.0860733211,1,"2014_Mar_13_1503",NA
"273",1,"left",5,0,5,0,1,7,17,0,2,0.458913906143,1,1,0.540774624111,2,0.458059578119,0.079934211,0.944444444444,0.079934211,"metacognition_realexp","ab",85.0860733211,1,"2014_Mar_13_1503",NA
"274",1,"left",5,0,5,0,1,8,18,8,2,1.32947339282,1,1,0.505391429695,1,0.375785363845,0.079934211,0.947368421053,0.079934211,"metacognition_realexp","ab",85.0860733211,1,"2014_Mar_13_1503",NA
"275",2,"down",5,0,5,0,1,9,19,3,1,0.62396977242,1,0,0.930909926723,1,0.679583100246,0.079934211,0.9,0.079934211,"metacognition_realexp","ab",85.0860733211,1,"2014_Mar_13_1503",NA
"276",1,"left",5,0,5,0,2,0,20,0,2,2.15283577998,1,1,0.434870674606,1,0.705156730113,0.079934211,0.904761904762,0.079934211,"metacognition_realexp","ab",85.0860733211,1,"2014_Mar_13_1503",NA
"277",1,"left",5,0,5,0,2,1,21,6,2,3.70572230374,1,1,0.458271331347,1,0.387557688315,0.079934211,0.909090909091,0.079934211,"metacognition_realexp","ab",85.0860733211,1,"2014_Mar_13_1503",NA
"278",2,"down",5,0,5,0,2,2,22,9,1,0.353058082372,1,0,0.646525726286,1,0.29364782666,0.079934211,0.869565217391,0.079934211,"metacognition_realexp","ab",85.0860733211,1,"2014_Mar_13_1503",NA
"279",2,"down",5,0,5,0,2,3,23,1,1,0.341198746577,1,0,0.329053351419,1,1.04623881991,0.079934211,0.833333333333,0.079934211,"metacognition_realexp","ab",85.0860733211,1,"2014_Mar_13_1503",NA
"280",1,"left",5,0,5,0,2,4,24,4,2,1.14121052776,1,1,0.305419766122,1,0.222823301941,0.079934211,0.84,0.079934211,"metacognition_realexp","ab",85.0860733211,1,"2014_Mar_13_1503",NA
"281",2,"down",5,0,5,0,2,5,25,3,1,0.705949072195,2,1,0.528917598349,1,0.469955489472,0.079934211,0.846153846154,0.079934211,"metacognition_realexp","ab",85.0860733211,1,"2014_Mar_13_1503",NA
"282",2,"down",5,0,5,0,2,6,26,7,1,0.599927310894,2,1,0.470257334073,1,0.364079260387,0.079934211,0.851851851852,0.079934211,"metacognition_realexp","ab",85.0860733211,1,"2014_Mar_13_1503",NA
"283",2,"down",5,0,5,0,2,7,27,5,1,0.553032055974,1,0,0.82308094787,1,0.575758952447,0.079934211,0.821428571429,0.079934211,"metacognition_realexp","ab",85.0860733211,1,"2014_Mar_13_1503",NA
"284",1,"left",5,0,5,0,2,8,28,2,1,0.800049126748,1,1,0.505417995097,2,0.316956467002,0.079934211,0.827586206897,0.079934211,"metacognition_realexp","ab",85.0860733211,1,"2014_Mar_13_1503",NA
"285",1,"left",5,0,5,0,2,9,29,8,1,0.776520648054,1,1,0.752488581686,1,0.363909857806,0.079934211,0.833333333333,0.079934211,"metacognition_realexp","ab",85.0860733211,1,"2014_Mar_13_1503",NA
"286",1,"left",5,0,5,0,3,0,30,6,1,1.72937937439,1,1,0.658322691132,1,0.740502963967,0.079934211,0.838709677419,0.079934211,"metacognition_realexp","ab",85.0860733211,1,"2014_Mar_13_1503",NA
"287",2,"down",5,0,5,0,3,1,31,7,1,0.423703964367,2,1,0.446443181027,2,0.587558227326,0.079934211,0.84375,0.079934211,"metacognition_realexp","ab",85.0860733211,1,"2014_Mar_13_1503",NA
"288",1,"left",5,0,5,0,3,2,32,0,1,0.835406525774,1,1,0.375920885912,2,0.622860955515,0.079934211,0.848484848485,0.079934211,"metacognition_realexp","ab",85.0860733211,1,"2014_Mar_13_1503",NA
"289",2,"down",5,0,5,0,3,3,33,3,1,0.423603862844,1,0,0.575986490916,1,0.305206472873,0.079934211,0.823529411765,0.079934211,"metacognition_realexp","ab",85.0860733211,1,"2014_Mar_13_1503",NA
"290",2,"down",5,0,5,0,3,4,34,1,1,0.388347720364,1,0,0.234839335128,1,0.740483328667,0.079934211,0.8,0.079934211,"metacognition_realexp","ab",85.0860733211,1,"2014_Mar_13_1503",NA
"291",1,"left",5,0,5,0,3,5,35,2,2,0.552950819736,1,1,0.717094222102,2,0.446279553533,0.079934211,0.805555555556,0.079934211,"metacognition_realexp","ab",85.0860733211,1,"2014_Mar_13_1503",NA
"292",2,"down",5,0,5,0,3,6,36,5,2,0.36470181488,2,1,0.50548845117,1,0.528784771323,0.079934211,0.810810810811,0.079934211,"metacognition_realexp","ab",85.0860733211,1,"2014_Mar_13_1503",NA
"293",2,"down",5,0,5,0,3,7,37,9,1,0.494179288762,1,0,0.411290605127,1,0.44638312011,0.079934211,0.789473684211,0.079934211,"metacognition_realexp","ab",85.0860733211,1,"2014_Mar_13_1503",NA
"294",1,"left",5,0,5,0,3,8,38,8,1,0.51770545742,2,0,0.505512706543,1,0.363933728171,0.079934211,0.769230769231,0.079934211,"metacognition_realexp","ab",85.0860733211,1,"2014_Mar_13_1503",NA
"295",1,"left",5,0,5,0,3,9,39,4,2,0.564773194965,1,1,0.446616818674,1,0.45813311424,0.079934211,0.775,0.079934211,"metacognition_realexp","ab",85.0860733211,1,"2014_Mar_13_1503",NA
"296",2,"down",5,0,5,0,4,0,40,1,2,0.729475240849,2,1,1.17597540274,1,0.387601963994,0.079934211,0.780487804878,0.079934211,"metacognition_realexp","ab",85.0860733211,1,"2014_Mar_13_1503",NA
"297",1,"left",5,0,5,0,4,1,41,0,2,4.4468743876,1,1,0.434686641798,2,0.434742082645,0.079934211,0.785714285714,0.079934211,"metacognition_realexp","ab",85.0860733211,1,"2014_Mar_13_1503",NA
"298",1,"left",5,0,5,0,4,2,42,4,2,0.41185579374,1,1,0.470084851444,1,0.470332795223,0.079934211,0.790697674419,0.079934211,"metacognition_realexp","ab",85.0860733211,1,"2014_Mar_13_1503",NA
"299",1,"left",5,0,5,0,4,3,43,2,1,0.188352186429,1,1,0.281423120294,1,0.340936172572,0.079934211,0.795454545455,0.079934211,"metacognition_realexp","ab",85.0860733211,1,"2014_Mar_13_1503",NA
"300",1,"left",5,0,5,0,4,4,44,8,2,3.17630650779,1,1,0.76421701549,2,0.787497165395,0.079934211,0.8,0.079934211,"metacognition_realexp","ab",85.0860733211,1,"2014_Mar_13_1503",NA
"301",1,"left",5,0,5,0,4,5,45,6,1,0.482424289559,2,0,0.340711714147,1,0.246401061384,0.079934211,0.782608695652,0.079934211,"metacognition_realexp","ab",85.0860733211,1,"2014_Mar_13_1503",NA
"302",2,"down",5,0,5,0,4,6,46,7,1,0.529492412112,2,1,0.234802374562,1,0.258231906744,0.079934211,0.787234042553,0.079934211,"metacognition_realexp","ab",85.0860733211,1,"2014_Mar_13_1503",NA
"303",2,"down",5,0,5,0,4,7,47,9,2,0.270672986408,2,1,0.399687683239,1,0.281564032444,0.079934211,0.791666666667,0.079934211,"metacognition_realexp","ab",85.0860733211,1,"2014_Mar_13_1503",NA
"304",2,"down",5,0,5,0,4,8,48,5,2,1.9999872948,1,0,0.823040522253,1,1.4227749452,0.079934211,0.775510204082,0.079934211,"metacognition_realexp","ab",85.0860733211,1,"2014_Mar_13_1503",NA
"305",2,"down",5,0,5,0,4,9,49,3,2,0.4120367465,2,1,0.599293206225,1,0.317001897693,0.079934211,0.78,0.079934211,"metacognition_realexp","ab",85.0860733211,1,"2014_Mar_13_1503",NA
"306",NA,"",5,0,5,0,NA,NA,NA,NA,NA,NA,NA,NA,NA,NA,NA,NA,NA,0.079934211,"metacognition_realexp","ab",85.0860733211,1,"2014_Mar_13_1503",NA
"307",1,"left",6,0,6,0,0,0,0,4,1,0.717707536453,1,1,0.375777663729,2,0.222660829466,0.079934211,1,0.079934211,"metacognition_realexp","ab",85.0860733211,1,"2014_Mar_13_1503",NA
"308",2,"down",6,0,6,0,0,1,1,3,1,0.670673679419,1,0,0.423007103745,1,0.552284759582,0.079934211,0.5,0.079934211,"metacognition_realexp","ab",85.0860733211,1,"2014_Mar_13_1503",NA
"309",1,"left",6,0,6,0,0,2,2,6,2,0.129566795244,1,1,0.399496720329,1,0.681697552482,0.079934211,0.666666666667,0.079934211,"metacognition_realexp","ab",85.0860733211,1,"2014_Mar_13_1503",NA
"310",2,"down",6,0,6,0,0,3,3,7,2,0.576587485077,1,0,0.211218840032,1,1.99927926901,0.079934211,0.5,0.079934211,"metacognition_realexp","ab",85.0860733211,1,"2014_Mar_13_1503",NA
"311",2,"down",6,0,6,0,0,4,4,9,1,0.552110736928,2,1,0.318040258524,2,0.798705841269,0.079934211,0.6,0.079934211,"metacognition_realexp","ab",85.0860733211,1,"2014_Mar_13_1503",NA
"312",2,"down",6,0,6,0,0,5,5,5,2,1.04710161807,2,1,4.19925516764,1,0.611073230812,0.079934211,0.666666666667,0.079934211,"metacognition_realexp","ab",85.0860733211,1,"2014_Mar_13_1503",NA
"313",2,"down",6,0,6,0,0,6,6,1,2,2.58814266623,2,1,0.540781169209,1,0.340531531401,0.079934211,0.714285714286,0.079934211,"metacognition_realexp","ab",85.0860733211,1,"2014_Mar_13_1503",NA
"314",1,"left",6,0,6,0,0,7,7,2,2,1.32940601679,1,1,0.375995577055,1,0.481707408628,0.079934211,0.75,0.079934211,"metacognition_realexp","ab",85.0860733211,1,"2014_Mar_13_1503",NA
"315",1,"left",6,0,6,0,0,8,8,0,2,1.60004011761,1,1,0.363537942136,1,0.45885923531,0.079934211,0.777777777778,0.079934211,"metacognition_realexp","ab",85.0860733211,1,"2014_Mar_13_1503",NA
"316",1,"left",6,0,6,0,0,9,9,8,2,0.49354210405,1,1,0.376683967548,1,0.493412357071,0.079934211,0.8,0.079934211,"metacognition_realexp","ab",85.0860733211,1,"2014_Mar_13_1503",NA
"317",1,"left",6,0,6,0,1,0,10,0,2,1.34118219132,1,1,0.376028687559,1,0.528790931417,0.079934211,0.818181818182,0.079934211,"metacognition_realexp","ab",85.0860733211,1,"2014_Mar_13_1503",NA
"318",2,"down",6,0,6,0,1,1,11,9,1,0.388309219772,1,0,0.799516663628,1,0.469874638238,0.079934211,0.75,0.079934211,"metacognition_realexp","ab",85.0860733211,1,"2014_Mar_13_1503",NA
"319",2,"down",6,0,6,0,1,2,12,1,1,1.01186164583,2,1,0.540604451515,2,0.458157369609,0.079934211,0.769230769231,0.079934211,"metacognition_realexp","ab",85.0860733211,1,"2014_Mar_13_1503",NA
"320",2,"down",6,0,6,0,1,3,13,5,2,1.88232911611,2,1,0.646593102312,1,0.421972592972,0.079934211,0.785714285714,0.079934211,"metacognition_realexp","ab",85.0860733211,1,"2014_Mar_13_1503",NA
"321",2,"down",6,0,6,0,1,4,14,7,2,3.51747329888,2,1,0.481886051355,1,0.469786856902,0.079934211,0.8,0.079934211,"metacognition_realexp","ab",85.0860733211,1,"2014_Mar_13_1503",NA
"322",1,"left",6,0,6,0,1,5,15,6,2,3.64691111716,1,1,0.434788668354,1,0.45817584989,0.079934211,0.8125,0.079934211,"metacognition_realexp","ab",85.0860733211,1,"2014_Mar_13_1503",NA
"323",1,"left",6,0,6,0,1,6,16,8,1,0.4344440881,2,0,0.800405257178,1,0.2934995994,0.079934211,0.764705882353,0.079934211,"metacognition_realexp","ab",85.0860733211,1,"2014_Mar_13_1503",NA
"324",2,"down",6,0,6,0,1,7,17,3,1,0.435368102186,1,0,0.352458628233,1,0.799344180999,0.079934211,0.722222222222,0.079934211,"metacognition_realexp","ab",85.0860733211,1,"2014_Mar_13_1503",NA
"325",1,"left",6,0,6,0,1,8,18,2,2,0.329517283491,1,1,0.552443767006,2,0.540527450343,0.079934211,0.736842105263,0.079934211,"metacognition_realexp","ab",85.0860733211,1,"2014_Mar_13_1503",NA
"326",1,"left",6,0,6,0,1,9,19,4,2,0.435415072901,1,1,0.505382189553,2,0.434630045937,0.079934211,0.75,0.079934211,"metacognition_realexp","ab",85.0860733211,1,"2014_Mar_13_1503",NA
"327",1,"left",6,0,6,0,2,0,20,6,2,0.42367662895,1,1,0.47005905605,2,0.681659821905,0.079934211,0.761904761905,0.079934211,"metacognition_realexp","ab",85.0860733211,1,"2014_Mar_13_1503",NA
"328",2,"down",6,0,6,0,2,1,21,3,2,0.30598803479,2,1,0.399500570384,1,0.328801942585,0.079934211,0.772727272727,0.079934211,"metacognition_realexp","ab",85.0860733211,1,"2014_Mar_13_1503",NA
"329",2,"down",6,0,6,0,2,2,22,9,2,0.141242868249,2,1,0.611312704463,1,2.26975936748,0.079934211,0.782608695652,0.079934211,"metacognition_realexp","ab",85.0860733211,1,"2014_Mar_13_1503",NA
"330",1,"left",6,0,6,0,2,3,23,8,2,2.27054169941,1,1,0.317165910194,1,0.740469853463,0.079934211,0.791666666667,0.079934211,"metacognition_realexp","ab",85.0860733211,1,"2014_Mar_13_1503",NA
"331",1,"left",6,0,6,0,2,4,24,0,2,1.47065504514,1,1,0.517106388288,1,0.481738594102,0.079934211,0.8,0.079934211,"metacognition_realexp","ab",85.0860733211,1,"2014_Mar_13_1503",NA
"332",2,"down",6,0,6,0,2,5,25,7,1,0.270723422178,2,1,0.658362731741,1,0.281628328426,0.079934211,0.807692307692,0.079934211,"metacognition_realexp","ab",85.0860733211,1,"2014_Mar_13_1503",NA
"333",2,"down",6,0,6,0,2,6,26,1,2,0.16482717279,2,1,0.387700525494,2,0.211121818553,0.079934211,0.814814814815,0.079934211,"metacognition_realexp","ab",85.0860733211,1,"2014_Mar_13_1503",NA
"334",2,"down",6,0,6,0,2,7,27,5,2,0.458878100599,2,1,0.352516379113,2,0.281644113667,0.079934211,0.821428571429,0.079934211,"metacognition_realexp","ab",85.0860733211,1,"2014_Mar_13_1503",NA
"335",1,"left",6,0,6,0,2,8,28,4,2,0.470698550802,1,1,0.458011452385,2,0.434765953007,0.079934211,0.827586206897,0.079934211,"metacognition_realexp","ab",85.0860733211,1,"2014_Mar_13_1503",NA
"336",1,"left",6,0,6,0,2,9,29,2,1,0.482185585919,1,1,0.39953560592,1,0.387593493862,0.079934211,0.833333333333,0.079934211,"metacognition_realexp","ab",85.0860733211,1,"2014_Mar_13_1503",NA
"337",1,"left",6,0,6,0,3,0,30,0,1,0.564797065334,1,1,0.4583668128,1,0.269950715396,0.079934211,0.838709677419,0.079934211,"metacognition_realexp","ab",85.0860733211,1,"2014_Mar_13_1503",NA
"338",1,"left",6,0,6,0,3,1,31,4,2,0.505971633538,1,1,0.481811360216,2,0.434822933876,0.079934211,0.84375,0.079934211,"metacognition_realexp","ab",85.0860733211,1,"2014_Mar_13_1503",NA
"339",2,"down",6,0,6,0,3,2,32,7,2,0.434120298163,2,1,0.776036695679,1,1.36394604836,0.079934211,0.848484848485,0.079934211,"metacognition_realexp","ab",85.0860733211,1,"2014_Mar_13_1503",NA
"340",2,"down",6,0,6,0,3,3,33,3,1,0.517735872883,2,1,0.646591947294,1,0.328738801622,0.079934211,0.852941176471,0.079934211,"metacognition_realexp","ab",85.0860733211,1,"2014_Mar_13_1503",NA
"341",1,"left",6,0,6,0,3,4,34,6,2,0.305906798549,1,1,0.305447871553,1,0.528789776399,0.079934211,0.857142857143,0.079934211,"metacognition_realexp","ab",85.0860733211,1,"2014_Mar_13_1503",NA
"342",1,"left",6,0,6,0,3,5,35,8,2,0.435370412222,1,1,0.446586788214,2,0.84638573815,0.079934211,0.861111111111,0.079934211,"metacognition_realexp","ab",85.0860733211,1,"2014_Mar_13_1503",NA
"343",1,"left",6,0,6,0,3,6,36,2,2,0.470662745251,1,1,0.446616433666,1,0.458154289561,0.079934211,0.864864864865,0.079934211,"metacognition_realexp","ab",85.0860733211,1,"2014_Mar_13_1503",NA
"344",2,"down",6,0,6,0,3,7,37,9,2,0.423590387636,1,0,0.352478263532,1,0.328786542352,0.079934211,0.842105263158,0.079934211,"metacognition_realexp","ab",85.0860733211,1,"2014_Mar_13_1503",NA
"345",2,"down",6,0,6,0,3,8,38,1,1,1.2471237174,1,0,0.517122173525,2,0.352402032371,0.079934211,0.820512820513,0.079934211,"metacognition_realexp","ab",85.0860733211,1,"2014_Mar_13_1503",NA
"346",2,"down",6,0,6,0,3,9,39,5,1,0.411794577809,2,1,0.552481882587,1,0.246410301523,0.079934211,0.825,0.079934211,"metacognition_realexp","ab",85.0860733211,1,"2014_Mar_13_1503",NA
"347",2,"down",6,0,6,0,4,0,40,5,2,1.03529079301,2,1,0.340740204585,1,0.281687619328,0.079934211,0.829268292683,0.079934211,"metacognition_realexp","ab",85.0860733211,1,"2014_Mar_13_1503",NA
"348",2,"down",6,0,6,0,4,1,41,9,2,3.99968044513,2,1,0.352615325621,1,0.246376421008,0.079934211,0.833333333333,0.079934211,"metacognition_realexp","ab",85.0860733211,1,"2014_Mar_13_1503",NA
"349",1,"left",6,0,6,0,4,2,42,0,2,0.529484711995,1,1,0.305378185491,1,0.470019785454,0.079934211,0.837209302326,0.079934211,"metacognition_realexp","ab",85.0860733211,1,"2014_Mar_13_1503",NA
"350",1,"left",6,0,6,0,4,3,43,2,2,0.29416257951,1,1,0.340742514618,1,0.387552298234,0.079934211,0.840909090909,0.079934211,"metacognition_realexp","ab",85.0860733211,1,"2014_Mar_13_1503",NA
"351",1,"left",6,0,6,0,4,4,44,6,1,0.68243483872,1,1,0.434859894438,1,0.434650836251,0.079934211,0.844444444444,0.079934211,"metacognition_realexp","ab",85.0860733211,1,"2014_Mar_13_1503",NA
"352",1,"left",6,0,6,0,4,5,45,4,2,0.670680994532,1,1,0.493642975587,2,1.19931907862,0.079934211,0.847826086957,0.079934211,"metacognition_realexp","ab",85.0860733211,1,"2014_Mar_13_1503",NA
"353",1,"left",6,0,6,0,4,6,46,8,2,0.48231417788,1,1,0.634920494365,1,0.469841527734,0.079934211,0.851063829787,0.079934211,"metacognition_realexp","ab",85.0860733211,1,"2014_Mar_13_1503",NA
"354",2,"down",6,0,6,0,4,7,47,7,1,0.741186734391,1,0,0.329024475981,1,0.293486124196,0.079934211,0.833333333333,0.079934211,"metacognition_realexp","ab",85.0860733211,1,"2014_Mar_13_1503",NA
"355",2,"down",6,0,6,0,4,8,48,1,2,0.447132726538,2,1,0.693648519671,1,0.281702249551,0.079934211,0.836734693878,0.079934211,"metacognition_realexp","ab",85.0860733211,1,"2014_Mar_13_1503",NA
"356",2,"down",6,0,6,0,4,9,49,3,2,0.658873249522,2,1,0.634887383858,1,0.246394516285,0.079934211,0.84,0.079934211,"metacognition_realexp","ab",85.0860733211,1,"2014_Mar_13_1503",NA
"357",NA,"",6,0,6,0,NA,NA,NA,NA,NA,NA,NA,NA,NA,NA,NA,NA,NA,0.079934211,"metacognition_realexp","ab",85.0860733211,1,"2014_Mar_13_1503",NA
"358",1,"left",7,0,7,0,0,0,0,0,1,0.682426368588,1,1,0.411088477042,1,1.04613717836,0.079934211,1,0.079934211,"metacognition_realexp","ab",85.0860733211,1,"2014_Mar_13_1503",NA
"359",2,"down",7,0,7,0,0,1,1,7,1,0.423571907355,2,1,0.328958639977,1,0.187674961107,0.079934211,1,0.079934211,"metacognition_realexp","ab",85.0860733211,1,"2014_Mar_13_1503",NA
"360",2,"down",7,0,7,0,0,2,2,3,2,1.11768243407,2,1,0.587844671692,1,0.269839833709,0.079934211,1,0.079934211,"metacognition_realexp","ab",85.0860733211,1,"2014_Mar_13_1503",NA
"361",2,"down",7,0,7,0,0,3,3,1,2,0.341302313154,1,0,0.387750576258,1,1.32856362395,0.079934211,0.75,0.079934211,"metacognition_realexp","ab",85.0860733211,1,"2014_Mar_13_1503",NA
"362",1,"left",7,0,7,0,0,4,4,2,2,0.56475163464,1,1,0.646592332298,1,0.740414027612,0.079934211,0.8,0.079934211,"metacognition_realexp","ab",85.0860733211,1,"2014_Mar_13_1503",NA
"363",2,"down",7,0,7,0,0,5,5,9,2,1.9764645912,2,1,0.622971067191,2,0.952290457666,0.079934211,0.833333333333,0.079934211,"metacognition_realexp","ab",85.0860733211,1,"2014_Mar_13_1503",NA
"364",2,"down",7,0,7,0,0,6,6,5,1,0.847054108341,2,1,0.340695543902,2,0.575850968849,0.079934211,0.857142857143,0.079934211,"metacognition_realexp","ab",85.0860733211,1,"2014_Mar_13_1503",NA
"365",1,"left",7,0,7,0,0,7,7,8,2,1.81192078273,1,1,1.24636333081,1,0.516945070831,0.079934211,0.875,0.079934211,"metacognition_realexp","ab",85.0860733211,1,"2014_Mar_13_1503",NA
"366",1,"left",7,0,7,0,0,8,8,4,2,0.494230494543,1,1,0.49262309504,1,0.494398357103,0.079934211,0.888888888889,0.079934211,"metacognition_realexp","ab",85.0860733211,1,"2014_Mar_13_1503",NA
"367",1,"left",7,0,7,0,0,9,9,6,2,0.353093887916,1,1,0.528899503075,2,0.505251287555,0.079934211,0.9,0.079934211,"metacognition_realexp","ab",85.0860733211,1,"2014_Mar_13_1503",NA
"368",2,"down",7,0,7,0,1,0,10,9,2,0.599968891525,2,1,0.729099860127,1,0.516924665513,0.079934211,0.909090909091,0.079934211,"metacognition_realexp","ab",85.0860733211,1,"2014_Mar_13_1503",NA
"369",1,"left",7,0,7,0,1,1,11,6,2,0.564468655324,1,1,0.364275998389,2,0.411054981534,0.079934211,0.916666666667,0.079934211,"metacognition_realexp","ab",85.0860733211,1,"2014_Mar_13_1503",NA
"370",2,"down",7,0,7,0,1,2,12,1,2,0.435377342328,2,1,0.352555264704,2,0.622750073828,0.079934211,0.923076923077,0.079934211,"metacognition_realexp","ab",85.0860733211,1,"2014_Mar_13_1503",NA
"371",1,"left",7,0,7,0,1,3,13,4,2,1.03529464306,1,1,0.352492123744,1,0.764072253281,0.079934211,0.928571428571,0.079934211,"metacognition_realexp","ab",85.0860733211,1,"2014_Mar_13_1503",NA
"372",2,"down",7,0,7,0,1,4,14,3,2,0.176526731153,2,1,0.611285754054,1,0.469875023246,0.079934211,0.933333333333,0.079934211,"metacognition_realexp","ab",85.0860733211,1,"2014_Mar_13_1503",NA
"373",2,"down",7,0,7,0,1,5,15,7,2,0.400049973763,2,1,0.505367944334,1,0.69348181213,0.079934211,0.9375,0.079934211,"metacognition_realexp","ab",85.0860733211,1,"2014_Mar_13_1503",NA
"374",1,"left",7,0,7,0,1,6,16,0,2,0.600090938387,1,1,0.399528290811,1,0.469919683925,0.079934211,0.941176470588,0.079934211,"metacognition_realexp","ab",85.0860733211,1,"2014_Mar_13_1503",NA
"375",1,"left",7,0,7,0,1,7,17,8,2,0.517729712788,1,1,0.434779813218,1,0.36406617019,0.079934211,0.944444444444,0.079934211,"metacognition_realexp","ab",85.0860733211,1,"2014_Mar_13_1503",NA
"376",1,"left",7,0,7,0,1,8,18,2,2,0.50596316341,1,1,0.411375306416,1,0.387492622325,0.079934211,0.947368421053,0.079934211,"metacognition_realexp","ab",85.0860733211,1,"2014_Mar_13_1503",NA
"377",2,"down",7,0,7,0,1,9,19,5,2,1.18829713059,2,1,0.540675292596,1,0.340559251825,0.079934211,0.95,0.079934211,"metacognition_realexp","ab",85.0860733211,1,"2014_Mar_13_1503",NA
"378",2,"down",7,0,7,0,2,0,20,1,2,0.411839238488,2,1,0.352457473211,2,0.905227725194,0.079934211,0.952380952381,0.079934211,"metacognition_realexp","ab",85.0860733211,1,"2014_Mar_13_1503",NA
"379",2,"down",7,0,7,0,2,1,21,7,2,0.3530141917,2,1,0.29269609215,2,0.25910009498,0.079934211,0.954545454545,0.079934211,"metacognition_realexp","ab",85.0860733211,1,"2014_Mar_13_1503",NA
"380",2,"down",7,0,7,0,2,2,22,5,2,0.29422302543,2,1,0.281883202308,2,0.258154135561,0.079934211,0.95652173913,0.079934211,"metacognition_realexp","ab",85.0860733211,1,"2014_Mar_13_1503",NA
"381",2,"down",7,0,7,0,2,3,23,3,2,0.399948717219,2,1,0.246710606101,2,0.234684177762,0.079934211,0.958333333333,0.079934211,"metacognition_realexp","ab",85.0860733211,1,"2014_Mar_13_1503",NA
"382",1,"left",7,0,7,0,2,4,24,0,2,0.729488716057,2,0,0.234704583072,1,0.258258472153,0.079934211,0.92,0.079934211,"metacognition_realexp","ab",85.0860733211,1,"2014_Mar_13_1503",NA
"383",2,"down",7,0,7,0,2,5,25,9,2,0.411946655127,2,1,0.364090040552,1,0.199707549542,0.079934211,0.923076923077,0.079934211,"metacognition_realexp","ab",85.0860733211,1,"2014_Mar_13_1503",NA
"384",1,"left",7,0,7,0,2,6,26,2,2,0.647130570505,1,1,0.458330622252,1,0.575852123868,0.079934211,0.925925925926,0.079934211,"metacognition_realexp","ab",85.0860733211,1,"2014_Mar_13_1503",NA
"385",1,"left",7,0,7,0,2,7,27,6,2,0.694176362718,1,1,0.693672005033,2,0.599320156634,0.079934211,0.928571428571,0.079934211,"metacognition_realexp","ab",85.0860733211,1,"2014_Mar_13_1503",NA
"386",1,"left",7,0,7,0,2,8,28,8,2,0.494214709302,1,1,0.575984565883,2,1.02283623814,0.079934211,0.931034482759,0.079934211,"metacognition_realexp","ab",85.0860733211,1,"2014_Mar_13_1503",NA
"387",1,"left",7,0,7,0,2,9,29,4,2,0.529450446469,1,1,0.552501517886,2,0.505204701847,0.079934211,0.933333333333,0.079934211,"metacognition_realexp","ab",85.0860733211,1,"2014_Mar_13_1503",NA
"388",2,"down",7,0,7,0,3,0,30,3,2,0.588383679911,2,1,0.493552114203,2,0.999327394748,0.079934211,0.935483870968,0.079934211,"metacognition_realexp","ab",85.0860733211,1,"2014_Mar_13_1503",NA
"389",1,"left",7,0,7,0,3,1,31,2,2,1.08238625098,1,1,0.423064084611,1,0.634771112083,0.079934211,0.9375,0.079934211,"metacognition_realexp","ab",85.0860733211,1,"2014_Mar_13_1503",NA
"390",2,"down",7,0,7,0,3,2,32,9,2,1.36474609056,2,1,0.752465481339,1,0.222894528026,0.079934211,0.939393939394,0.079934211,"metacognition_realexp","ab",85.0860733211,1,"2014_Mar_13_1503",NA
"391",1,"left",7,0,7,0,3,3,33,0,2,0.576575164887,1,1,0.834798986511,1,0.50521201696,0.079934211,0.941176470588,0.079934211,"metacognition_realexp","ab",85.0860733211,1,"2014_Mar_13_1503",NA
"392",1,"left",7,0,7,0,3,4,34,8,1,0.717699451328,1,1,0.423123375516,2,1.11690433721,0.079934211,0.942857142857,0.079934211,"metacognition_realexp","ab",85.0860733211,1,"2014_Mar_13_1503",NA
"393",1,"left",7,0,7,0,3,5,35,6,2,0.48236730869,1,1,0.434828708967,1,0.43458500025,0.079934211,0.944444444444,0.079934211,"metacognition_realexp","ab",85.0860733211,1,"2014_Mar_13_1503",NA
"394",1,"left",7,0,7,0,3,6,36,4,2,0.894126850962,1,1,0.387803322064,2,0.646444490045,0.079934211,0.945945945946,0.079934211,"metacognition_realexp","ab",85.0860733211,1,"2014_Mar_13_1503",NA
"395",2,"down",7,0,7,0,3,7,37,1,2,0.364844652056,2,1,0.24647382749,2,0.246491152757,0.079934211,0.947368421053,0.079934211,"metacognition_realexp","ab",85.0860733211,1,"2014_Mar_13_1503",NA
"396",2,"down",7,0,7,0,3,8,38,5,2,0.400108494654,2,1,0.398741338813,1,0.364113910917,0.079934211,0.948717948718,0.079934211,"metacognition_realexp","ab",85.0860733211,1,"2014_Mar_13_1503",NA
"397",2,"down",7,0,7,0,3,9,39,7,1,0.517789003694,1,0,0.258405929395,1,0.258039018805,0.079934211,0.925,0.079934211,"metacognition_realexp","ab",85.0860733211,1,"2014_Mar_13_1503",NA
"398",1,"left",7,0,7,0,4,0,40,0,2,0.435482833935,1,1,0.658212964456,2,2.70506625374,0.079934211,0.926829268293,0.079934211,"metacognition_realexp","ab",85.0860733211,1,"2014_Mar_13_1503",NA
"399",2,"down",7,0,7,0,4,1,41,3,2,0.341285372895,2,1,0.269211889135,2,0.235547360917,0.079934211,0.928571428571,0.079934211,"metacognition_realexp","ab",85.0860733211,1,"2014_Mar_13_1503",NA
"400",1,"left",7,0,7,0,4,2,42,8,2,0.57650701885,1,1,0.305446331527,1,0.646389434209,0.079934211,0.93023255814,0.079934211,"metacognition_realexp","ab",85.0860733211,1,"2014_Mar_13_1503",NA
"401",2,"down",7,0,7,0,4,3,43,7,2,0.611845552583,2,1,0.599514199592,2,0.552258579184,0.079934211,0.931818181818,0.079934211,"metacognition_realexp","ab",85.0860733211,1,"2014_Mar_13_1503",NA
"402",1,"left",7,0,7,0,4,4,44,4,1,0.30598033467,2,0,1.058314144,1,0.775784901842,0.079934211,0.911111111111,0.079934211,"metacognition_realexp","ab",85.0860733211,1,"2014_Mar_13_1503",NA
"403",2,"down",7,0,7,0,4,5,45,9,2,0.788309912783,2,1,0.763566740574,1,0.717615905054,0.079934211,0.913043478261,0.079934211,"metacognition_realexp","ab",85.0860733211,1,"2014_Mar_13_1503",NA
"404",1,"left",7,0,7,0,4,6,46,2,1,2.88222978459,1,1,0.411301000284,1,0.281678379186,0.079934211,0.914893617021,0.079934211,"metacognition_realexp","ab",85.0860733211,1,"2014_Mar_13_1503",NA
"405",1,"left",7,0,7,0,4,7,47,6,1,0.494214324295,1,1,0.564213781439,1,0.433679081438,0.079934211,0.916666666667,0.079934211,"metacognition_realexp","ab",85.0860733211,1,"2014_Mar_13_1503",NA
"406",2,"down",7,0,7,0,4,8,48,1,2,0.400068069041,2,1,0.270148223408,2,0.258170305806,0.079934211,0.918367346939,0.079934211,"metacognition_realexp","ab",85.0860733211,1,"2014_Mar_13_1503",NA
"407",2,"down",7,0,7,0,4,9,49,5,2,0.282309788814,2,1,0.470321630055,2,0.352209914439,0.079934211,0.92,0.079934211,"metacognition_realexp","ab",85.0860733211,1,"2014_Mar_13_1503",NA
"408",NA,"",7,0,7,0,NA,NA,NA,NA,NA,NA,NA,NA,NA,NA,NA,NA,NA,0.079934211,"metacognition_realexp","ab",85.0860733211,1,"2014_Mar_13_1503",NA
"409",2,"down",0,0,0,0,0,0,0,1,2,0.988331627116,2,1,0.469838447687,2,0.928546375689,0.194388889,1,0.194388889,"metacognition_realexp","eb",85.3202923543,1,"2014_Mar_14_1346",NA
"410",2,"down",0,0,0,0,0,1,1,7,2,0.223638744373,2,1,0.328973655203,2,0.281703789574,0.194388889,1,0.194388889,"metacognition_realexp","eb",85.3202923543,1,"2014_Mar_14_1346",NA
"411",1,"left",0,0,0,0,0,2,2,2,2,0.376524190111,1,1,0.611323484626,2,0.469932774125,0.194388889,1,0.194388889,"metacognition_realexp","eb",85.3202923543,1,"2014_Mar_14_1346",NA
"412",1,"left",0,0,0,0,0,3,3,4,1,1.10593320995,2,0,0.670112340863,1,1.36397569381,0.194388889,0.75,0.194388889,"metacognition_realexp","eb",85.3202923543,1,"2014_Mar_14_1346",NA
"413",1,"left",0,0,0,0,0,4,4,6,2,0.447126181439,1,1,0.387790616868,2,0.352311940996,0.194388889,0.8,0.194388889,"metacognition_realexp","eb",85.3202923543,1,"2014_Mar_14_1346",NA
"414",2,"down",0,0,0,0,0,5,5,9,2,0.482412739382,2,1,0.505419920127,2,0.752279908507,0.194388889,0.833333333333,0.194388889,"metacognition_realexp","eb",85.3202923543,1,"2014_Mar_14_1346",NA
"415",1,"left",0,0,0,0,0,6,6,8,2,0.705968322487,1,1,0.458339862391,1,1.04648406865,0.194388889,0.857142857143,0.194388889,"metacognition_realexp","eb",85.3202923543,1,"2014_Mar_14_1346",NA
"416",1,"left",0,0,0,0,0,7,7,0,2,0.411864263871,1,1,0.646571156977,2,0.458195100184,0.194388889,0.875,0.194388889,"metacognition_realexp","eb",85.3202923543,1,"2014_Mar_14_1346",NA
"417",2,"down",0,0,0,0,0,8,8,3,1,0.741204444662,2,1,0.31722597111,1,0.222895683045,0.194388889,0.888888888889,0.194388889,"metacognition_realexp","eb",85.3202923543,1,"2014_Mar_14_1346",NA
"418",2,"down",0,0,0,0,0,9,9,5,2,0.694194072989,2,1,0.317212110899,1,0.222855642434,0.194388889,0.9,0.194388889,"metacognition_realexp","eb",85.3202923543,1,"2014_Mar_14_1346",NA
"419",2,"down",0,0,0,0,1,0,10,9,1,1.14121514782,2,1,0.458351412567,2,0.364153181515,0.194388889,0.909090909091,0.194388889,"metacognition_realexp","eb",85.3202923543,1,"2014_Mar_14_1346",NA
"420",1,"left",0,0,0,0,1,1,11,4,2,0.447168147078,2,0,0.352470178408,2,0.49342929733,0.194388889,0.833333333333,0.194388889,"metacognition_realexp","eb",85.3202923543,1,"2014_Mar_14_1346",NA
"421",2,"down",0,0,0,0,1,2,12,3,1,0.764752173647,2,1,0.293663996908,1,0.77582224741,0.194388889,0.846153846154,0.194388889,"metacognition_realexp","eb",85.3202923543,1,"2014_Mar_14_1346",NA
"422",1,"left",0,0,0,0,1,3,13,0,2,0.482410044341,1,1,0.234848960273,2,0.246445337059,0.194388889,0.857142857143,0.194388889,"metacognition_realexp","eb",85.3202923543,1,"2014_Mar_14_1346",NA
"423",2,"down",0,0,0,0,1,4,14,7,1,0.647118635324,2,1,0.22239748545,1,0.588253932931,0.194388889,0.866666666667,0.194388889,"metacognition_realexp","eb",85.3202923543,1,"2014_Mar_14_1346",NA
"424",2,"down",0,0,0,0,1,5,15,1,1,0.752986779283,2,1,0.328996755556,2,0.587517416703,0.194388889,0.875,0.194388889,"metacognition_realexp","eb",85.3202923543,1,"2014_Mar_14_1346",NA
"425",1,"left",0,0,0,0,1,6,16,6,2,0.0824528569938,2,0,0.246622054753,2,1.7286517133,0.194388889,0.823529411765,0.194388889,"metacognition_realexp","eb",85.3202923543,1,"2014_Mar_14_1346",NA
"426",1,"left",0,0,0,0,1,7,17,2,2,0.364777661035,2,0,0.834996109516,1,0.775579693712,0.194388889,0.777777777778,0.194388889,"metacognition_realexp","eb",85.3202923543,1,"2014_Mar_14_1346",NA
"427",1,"left",0,0,0,0,1,8,18,8,2,0.411886209205,1,1,0.28177039559,1,0.540632941949,0.194388889,0.789473684211,0.194388889,"metacognition_realexp","eb",85.3202923543,1,"2014_Mar_14_1346",NA
"428",2,"down",0,0,0,0,1,9,19,5,1,0.635415996917,2,1,0.340655503293,1,0.599391767727,0.194388889,0.8,0.194388889,"metacognition_realexp","eb",85.3202923543,1,"2014_Mar_14_1346",NA
"429",2,"down",0,0,0,0,2,0,20,9,1,0.62360709689,1,0,1.52885407238,1,0.952265817293,0.194388889,0.761904761905,0.194388889,"metacognition_realexp","eb",85.3202923543,1,"2014_Mar_14_1346",NA
"430",2,"down",0,0,0,0,2,1,21,5,2,0.611836697451,2,1,0.399646872617,1,0.540365747876,0.194388889,0.772727272727,0.194388889,"metacognition_realexp","eb",85.3202923543,1,"2014_Mar_14_1346",NA
"431",2,"down",0,0,0,0,2,2,22,3,2,0.24718993841,2,1,0.164238498816,2,0.175765574546,0.194388889,0.782608695652,0.194388889,"metacognition_realexp","eb",85.3202923543,1,"2014_Mar_14_1346",NA
"432",1,"left",0,0,0,0,2,3,23,0,2,0.446546362599,1,1,0.258857541283,1,0.364212857425,0.194388889,0.791666666667,0.194388889,"metacognition_realexp","eb",85.3202923543,1,"2014_Mar_14_1346",NA
"433",1,"left",0,0,0,0,2,4,24,2,2,0.564809385519,1,1,0.681892750455,2,0.493425062265,0.194388889,0.8,0.194388889,"metacognition_realexp","eb",85.3202923543,1,"2014_Mar_14_1346",NA
"434",1,"left",0,0,0,0,2,5,25,6,2,0.105988650797,1,1,0.646605807505,1,0.62281667984,0.194388889,0.807692307692,0.194388889,"metacognition_realexp","eb",85.3202923543,1,"2014_Mar_14_1346",NA
"435",2,"down",0,0,0,0,2,6,26,7,2,0.0235966247305,2,1,0.187837433582,2,0.693456401743,0.194388889,0.814814814815,0.194388889,"metacognition_realexp","eb",85.3202923543,1,"2014_Mar_14_1346",NA
"436",1,"left",0,0,0,0,2,7,27,4,1,0.788292972526,1,1,0.293644361608,2,0.481698553494,0.194388889,0.821428571429,0.194388889,"metacognition_realexp","eb",85.3202923543,1,"2014_Mar_14_1346",NA
"437",2,"down",0,0,0,0,2,8,28,1,2,0.117830661328,2,1,0.564139860312,2,0.64645719524,0.194388889,0.827586206897,0.194388889,"metacognition_realexp","eb",85.3202923543,1,"2014_Mar_14_1346",NA
"438",1,"left",0,0,0,0,2,9,29,8,2,0.705047388447,1,1,0.388665350203,1,0.799334555855,0.194388889,0.833333333333,0.194388889,"metacognition_realexp","eb",85.3202923543,1,"2014_Mar_14_1346",NA
"439",1,"left",0,0,0,0,3,0,30,0,2,0.894159961469,1,1,0.37604331778,2,0.646527651314,0.194388889,0.838709677419,0.194388889,"metacognition_realexp","eb",85.3202923543,1,"2014_Mar_14_1346",NA
"440",1,"left",0,0,0,0,3,1,31,4,1,0.517711232508,1,1,0.399553701196,2,1.03458315222,0.194388889,0.84375,0.194388889,"metacognition_realexp","eb",85.3202923543,1,"2014_Mar_14_1346",NA
"441",1,"left",0,0,0,0,3,2,32,6,1,1.70587207102,1,1,0.728880791788,1,0.54049587986,0.194388889,0.848484848485,0.194388889,"metacognition_realexp","eb",85.3202923543,1,"2014_Mar_14_1346",NA
"442",2,"down",0,0,0,0,3,3,33,7,2,0.11771862462,2,1,0.623076943808,1,0.211216529996,0.194388889,0.852941176471,0.194388889,"metacognition_realexp","eb",85.3202923543,1,"2014_Mar_14_1346",NA
"443",1,"left",0,0,0,0,3,4,34,2,1,0.458884645696,1,1,0.399542536026,2,0.587582097689,0.194388889,0.857142857143,0.194388889,"metacognition_realexp","eb",85.3202923543,1,"2014_Mar_14_1346",NA
"444",2,"down",0,0,0,0,3,5,35,9,1,0.38834964539,2,1,0.29375601331,2,1.03446880548,0.194388889,0.861111111111,0.194388889,"metacognition_realexp","eb",85.3202923543,1,"2014_Mar_14_1346",NA
"445",2,"down",0,0,0,0,3,6,36,3,2,0.117736719896,2,1,0.976115775885,1,0.399177550462,0.194388889,0.864864864865,0.194388889,"metacognition_realexp","eb",85.3202923543,1,"2014_Mar_14_1346",NA
"446",2,"down",0,0,0,0,3,7,37,5,1,0.435381962398,2,1,0.270208669331,1,0.222971529201,0.194388889,0.868421052632,0.194388889,"metacognition_realexp","eb",85.3202923543,1,"2014_Mar_14_1346",NA
"447",1,"left",0,0,0,0,3,8,38,8,1,0.247177618223,1,1,0.446546362599,1,0.587603658018,0.194388889,0.871794871795,0.194388889,"metacognition_realexp","eb",85.3202923543,1,"2014_Mar_14_1346",NA
"448",2,"down",0,0,0,0,3,9,39,1,2,0.458917756201,1,0,0.387782146739,2,0.552561963807,0.194388889,0.85,0.194388889,"metacognition_realexp","eb",85.3202923543,1,"2014_Mar_14_1346",NA
"449",2,"down",0,0,0,0,4,0,40,5,1,0.38837390076,2,1,0.551754221493,2,0.59994617618,0.194388889,0.853658536585,0.194388889,"metacognition_realexp","eb",85.3202923543,1,"2014_Mar_14_1346",NA
"450",2,"down",0,0,0,0,4,1,41,1,2,0.482468180227,2,1,0.152467329365,1,0.434487593763,0.194388889,0.857142857143,0.194388889,"metacognition_realexp","eb",85.3202923543,1,"2014_Mar_14_1346",NA
"451",1,"left",0,0,0,0,4,2,42,6,1,0.364805381458,1,1,0.199542767029,2,0.222934568637,0.194388889,0.860465116279,0.194388889,"metacognition_realexp","eb",85.3202923543,1,"2014_Mar_14_1346",NA
"452",1,"left",0,0,0,0,4,3,43,0,1,0.422783800339,2,0,0.259159770891,1,0.399324237698,0.194388889,0.840909090909,0.194388889,"metacognition_realexp","eb",85.3202923543,1,"2014_Mar_14_1346",NA
"453",1,"left",0,0,0,0,4,4,44,2,2,0.470655815148,1,1,0.258390529164,2,0.258239606863,0.194388889,0.844444444444,0.194388889,"metacognition_realexp","eb",85.3202923543,1,"2014_Mar_14_1346",NA
"454",2,"down",0,0,0,0,4,5,45,3,1,0.482405424271,1,0,0.21133549681,2,0.269918759911,0.194388889,0.826086956522,0.194388889,"metacognition_realexp","eb",85.3202923543,1,"2014_Mar_14_1346",NA
"455",2,"down",0,0,0,0,4,6,46,9,1,0.458983592205,1,0,0.234778119192,2,0.269948020358,0.194388889,0.808510638298,0.194388889,"metacognition_realexp","eb",85.3202923543,1,"2014_Mar_14_1346",NA
"456",1,"left",0,0,0,0,4,7,47,8,1,0.447152746844,2,0,0.740812893693,1,0.881691161382,0.194388889,0.791666666667,0.194388889,"metacognition_realexp","eb",85.3202923543,1,"2014_Mar_14_1346",NA
"457",2,"down",0,0,0,0,4,8,48,7,1,0.541238941188,1,0,1.23479582946,1,1.08164434467,0.194388889,0.775510204082,0.194388889,"metacognition_realexp","eb",85.3202923543,1,"2014_Mar_14_1346",NA
"458",1,"left",0,0,0,0,4,9,49,4,1,0.482394644106,2,0,0.281908227691,2,0.916967709173,0.194388889,0.76,0.194388889,"metacognition_realexp","eb",85.3202923543,1,"2014_Mar_14_1346",NA
"459",NA,"",0,0,0,0,NA,NA,NA,NA,NA,NA,NA,NA,NA,NA,NA,NA,NA,0.194388889,"metacognition_realexp","eb",85.3202923543,1,"2014_Mar_14_1346",NA
"460",2,"down",1,0,1,0,0,0,0,3,2,0.706052253767,2,1,0.187428942354,2,0.186928049718,0.194388889,1,0.194388889,"metacognition_realexp","eb",85.3202923543,1,"2014_Mar_14_1346",NA
"461",1,"left",1,0,1,0,0,1,1,0,2,0.435416227921,1,1,0.23476810904,2,0.222861417522,0.194388889,1,0.194388889,"metacognition_realexp","eb",85.3202923543,1,"2014_Mar_14_1346",NA
"462",2,"down",1,0,1,0,0,2,2,9,2,0.317035393204,2,1,0.176592567154,2,0.387625064344,0.194388889,1,0.194388889,"metacognition_realexp","eb",85.3202923543,1,"2014_Mar_14_1346",NA
"463",1,"left",1,0,1,0,0,3,3,2,2,0.435394282586,1,1,0.211332801769,2,0.151611846323,0.194388889,1,0.194388889,"metacognition_realexp","eb",85.3202923543,1,"2014_Mar_14_1346",NA
"464",1,"left",1,0,1,0,0,4,4,8,2,0.752964063937,1,1,0.329061821547,1,0.399281502047,0.194388889,1,0.194388889,"metacognition_realexp","eb",85.3202923543,1,"2014_Mar_14_1346",NA
"465",2,"down",1,0,1,0,0,5,5,5,2,0.800054901837,2,1,0.5406953129,2,0.740618080722,0.194388889,1,0.194388889,"metacognition_realexp","eb",85.3202923543,1,"2014_Mar_14_1346",NA
"466",2,"down",1,0,1,0,0,6,6,1,2,0.470661590236,2,1,0.482090874475,2,0.528487161787,0.194388889,1,0.194388889,"metacognition_realexp","eb",85.3202923543,1,"2014_Mar_14_1346",NA
"467",1,"left",1,0,1,0,0,7,7,6,2,0.482431989676,1,1,0.246588174237,1,0.199326393731,0.194388889,1,0.194388889,"metacognition_realexp","eb",85.3202923543,1,"2014_Mar_14_1346",NA
"468",1,"left",1,0,1,0,0,8,8,4,2,0.376580015962,1,1,0.276875815972,2,0.886655427062,0.194388889,1,0.194388889,"metacognition_realexp","eb",85.3202923543,1,"2014_Mar_14_1346",NA
"469",2,"down",1,0,1,0,0,9,9,7,2,0.153042913139,2,1,0.505560062263,1,0.516828029043,0.194388889,1,0.194388889,"metacognition_realexp","eb",85.3202923543,1,"2014_Mar_14_1346",NA
"470",2,"down",1,0,1,0,1,0,10,3,1,0.457910580847,2,1,0.506419780369,1,0.481710873682,0.194388889,1,0.194388889,"metacognition_realexp","eb",85.3202923543,1,"2014_Mar_14_1346",NA
"471",1,"left",1,0,1,0,1,1,11,0,1,0.541248181329,2,0,0.493654910769,2,0.505183911529,0.194388889,0.916666666667,0.194388889,"metacognition_realexp","eb",85.3202923543,1,"2014_Mar_14_1346",NA
"472",2,"down",1,0,1,0,1,2,12,5,1,0.0589151381612,2,1,0.293674392066,2,0.552320950133,0.194388889,0.923076923077,0.194388889,"metacognition_realexp","eb",85.3202923543,1,"2014_Mar_14_1346",NA
"473",1,"left",1,0,1,0,1,3,13,6,1,0.541244716276,2,0,0.223068935686,2,0.481623862356,0.194388889,0.857142857143,0.194388889,"metacognition_realexp","eb",85.3202923543,1,"2014_Mar_14_1346",NA
"474",1,"left",1,0,1,0,1,4,14,8,2,0.764667472356,2,0,0.90545487866,1,0.634748011733,0.194388889,0.8,0.194388889,"metacognition_realexp","eb",85.3202923543,1,"2014_Mar_14_1346",NA
"475",2,"down",1,0,1,0,1,5,15,7,1,0.599928080904,2,1,0.163894303569,2,0.152865810439,0.194388889,0.8125,0.194388889,"metacognition_realexp","eb",85.3202923543,1,"2014_Mar_14_1346",NA
"476",2,"down",1,0,1,0,1,6,16,1,1,0.505953153256,2,1,0.17502328323,1,0.176938302424,0.194388889,0.823529411765,0.194388889,"metacognition_realexp","eb",85.3202923543,1,"2014_Mar_14_1346",NA
"477",2,"down",1,0,1,0,1,7,17,9,1,0.694394276041,2,1,0.19939915984,2,0.42275107484,0.194388889,0.833333333333,0.194388889,"metacognition_realexp","eb",85.3202923543,1,"2014_Mar_14_1346",NA
"478",1,"left",1,0,1,0,1,8,18,2,2,0.44709345594,1,1,1.55240488141,2,0.387546908153,0.194388889,0.842105263158,0.194388889,"metacognition_realexp","eb",85.3202923543,1,"2014_Mar_14_1346",NA
"479",1,"left",1,0,1,0,1,9,19,4,1,1.05894670864,1,1,0.199447285574,2,0.481676993166,0.194388889,0.85,0.194388889,"metacognition_realexp","eb",85.3202923543,1,"2014_Mar_14_1346",NA
"480",2,"down",1,0,1,0,2,0,20,9,1,0.741250645366,2,1,0.552474567475,1,0.822839934195,0.194388889,0.857142857143,0.194388889,"metacognition_realexp","eb",85.3202923543,1,"2014_Mar_14_1346",NA
"481",2,"down",1,0,1,0,2,1,21,3,2,0.376578475939,2,1,0.611335034803,2,0.61055693794,0.194388889,0.863636363636,0.194388889,"metacognition_realexp","eb",85.3202923543,1,"2014_Mar_14_1346",NA
"482",1,"left",1,0,1,0,2,2,22,8,2,0.576552449542,1,1,0.352443613003,2,0.599446438561,0.194388889,0.869565217391,0.194388889,"metacognition_realexp","eb",85.3202923543,1,"2014_Mar_14_1346",NA
"483",1,"left",1,0,1,0,2,3,23,2,2,0.67063171378,1,1,0.211285061041,1,0.222915318344,0.194388889,0.875,0.194388889,"metacognition_realexp","eb",85.3202923543,1,"2014_Mar_14_1346",NA
"484",2,"down",1,0,1,0,2,4,24,1,1,0.623600936797,1,0,0.599511889559,2,0.634640595096,0.194388889,0.84,0.194388889,"metacognition_realexp","eb",85.3202923543,1,"2014_Mar_14_1346",NA
"485",2,"down",1,0,1,0,2,5,25,7,1,0.611877508073,2,1,0.340721339297,2,0.38757693861,0.194388889,0.846153846154,0.194388889,"metacognition_realexp","eb",85.3202923543,1,"2014_Mar_14_1346",NA
"486",1,"left",1,0,1,0,2,6,26,4,1,0.294195690013,1,1,0.340726729379,1,0.552287069616,0.194388889,0.851851851852,0.194388889,"metacognition_realexp","eb",85.3202923543,1,"2014_Mar_14_1346",NA
"487",2,"down",1,0,1,0,2,7,27,5,1,0.293507684525,2,1,0.282558117598,2,0.246468052405,0.194388889,0.857142857143,0.194388889,"metacognition_realexp","eb",85.3202923543,1,"2014_Mar_14_1346",NA
"488",1,"left",1,0,1,0,2,8,28,6,1,0.12950865936,2,0,0.493626805341,1,0.646422544712,0.194388889,0.827586206897,0.194388889,"metacognition_realexp","eb",85.3202923543,1,"2014_Mar_14_1346",NA
"489",1,"left",1,0,1,0,2,9,29,0,1,1.45882766483,1,1,0.987079588028,1,0.81175138015,0.194388889,0.833333333333,0.194388889,"metacognition_realexp","eb",85.3202923543,1,"2014_Mar_14_1346",NA
"490",1,"left",1,0,1,0,3,0,30,4,1,0.623582841521,1,1,0.752599848384,2,0.587397294872,0.194388889,0.838709677419,0.194388889,"metacognition_realexp","eb",85.3202923543,1,"2014_Mar_14_1346",NA
"491",2,"down",1,0,1,0,3,1,31,5,1,0.435351161929,2,1,0.246605884507,1,0.69346602689,0.194388889,0.84375,0.194388889,"metacognition_realexp","eb",85.3202923543,1,"2014_Mar_14_1346",NA
"492",2,"down",1,0,1,0,3,2,32,1,2,0.341293073013,2,1,1.02236653098,1,1.1528631154,0.194388889,0.848484848485,0.194388889,"metacognition_realexp","eb",85.3202923543,1,"2014_Mar_14_1346",NA
"493",1,"left",1,0,1,0,3,3,33,6,1,0.341205291675,2,0,0.340732504467,2,0.317021917999,0.194388889,0.823529411765,0.194388889,"metacognition_realexp","eb",85.3202923543,1,"2014_Mar_14_1346",NA
"494",1,"left",1,0,1,0,3,4,34,0,1,0.423631583264,1,1,2.12878908339,2,1.44636001976,0.194388889,0.828571428571,0.194388889,"metacognition_realexp","eb",85.3202923543,1,"2014_Mar_14_1346",NA
"495",1,"left",1,0,1,0,3,5,35,2,1,0.388312299821,2,0,0.681997472052,1,0.693270443908,0.194388889,0.805555555556,0.194388889,"metacognition_realexp","eb",85.3202923543,1,"2014_Mar_14_1346",NA
"496",2,"down",1,0,1,0,3,6,36,9,2,0.317718778623,2,1,0.411308315395,2,0.552316330063,0.194388889,0.810810810811,0.194388889,"metacognition_realexp","eb",85.3202923543,1,"2014_Mar_14_1346",NA
"497",2,"down",1,0,1,0,3,7,37,3,2,0.517762053283,2,1,0.152441918977,2,0.1759199619,0.194388889,0.815789473684,0.194388889,"metacognition_realexp","eb",85.3202923543,1,"2014_Mar_14_1346",NA
"498",2,"down",1,0,1,0,3,8,38,7,2,0.576515873985,1,0,0.164357080624,2,0.552206988395,0.194388889,0.794871794872,0.194388889,"metacognition_realexp","eb",85.3202923543,1,"2014_Mar_14_1346",NA
"499",1,"left",1,0,1,0,3,9,39,8,1,0.600132904026,1,1,0.599477624036,1,0.61110595631,0.194388889,0.8,0.194388889,"metacognition_realexp","eb",85.3202923543,1,"2014_Mar_14_1346",NA
"500",1,"left",1,0,1,0,4,0,40,6,1,1.18825516495,2,0,0.199581652622,1,0.246495387822,0.194388889,0.780487804878,0.194388889,"metacognition_realexp","eb",85.3202923543,1,"2014_Mar_14_1346",NA
"501",1,"left",1,0,1,0,4,1,41,0,1,0.447159291944,2,0,0.917187162519,2,1.17571359875,0.194388889,0.761904761905,0.194388889,"metacognition_realexp","eb",85.3202923543,1,"2014_Mar_14_1346",NA
"502",1,"left",1,0,1,0,4,2,42,2,1,0.847092993933,1,1,1.43477827319,2,0.692753381025,0.194388889,0.767441860465,0.194388889,"metacognition_realexp","eb",85.3202923543,1,"2014_Mar_14_1346",NA
"503",2,"down",1,0,1,0,4,3,43,7,2,0.435341151776,2,1,0.44661065858,2,0.552283989569,0.194388889,0.772727272727,0.194388889,"metacognition_realexp","eb",85.3202923543,1,"2014_Mar_14_1346",NA
"504",1,"left",1,0,1,0,4,4,44,8,1,0.505987033772,1,1,0.693587303738,2,1.02282969304,0.194388889,0.777777777778,0.194388889,"metacognition_realexp","eb",85.3202923543,1,"2014_Mar_14_1346",NA
"505",2,"down",1,0,1,0,4,5,45,3,2,0.447160446961,2,1,0.199538531965,2,0.61111904651,0.194388889,0.782608695652,0.194388889,"metacognition_realexp","eb",85.3202923543,1,"2014_Mar_14_1346",NA
"506",2,"down",1,0,1,0,4,6,46,5,2,0.0588943478442,2,1,0.187843978681,2,0.434598475454,0.194388889,0.787234042553,0.194388889,"metacognition_realexp","eb",85.3202923543,1,"2014_Mar_14_1346",NA
"507",2,"down",1,0,1,0,4,7,47,9,1,0.789262802311,2,1,0.211249255495,1,0.234692647889,0.194388889,0.791666666667,0.194388889,"metacognition_realexp","eb",85.3202923543,1,"2014_Mar_14_1346",NA
"508",2,"down",1,0,1,0,4,8,48,1,1,0.600098253498,1,0,0.83395081858,2,0.834777041176,0.194388889,0.775510204082,0.194388889,"metacognition_realexp","eb",85.3202923543,1,"2014_Mar_14_1346",NA
"509",1,"left",1,0,1,0,4,9,49,4,1,0.458197025214,1,1,1.282584683,1,0.434467188452,0.194388889,0.78,0.194388889,"metacognition_realexp","eb",85.3202923543,1,"2014_Mar_14_1346",NA
"510",NA,"",1,0,1,0,NA,NA,NA,NA,NA,NA,NA,NA,NA,NA,NA,NA,NA,0.194388889,"metacognition_realexp","eb",85.3202923543,1,"2014_Mar_14_1346",NA
"511",2,"down",2,0,2,0,0,0,0,1,1,1.24709137691,1,0,0.516973561262,1,0.857820412472,0.194388889,0,0.194388889,"metacognition_realexp","eb",85.3202923543,1,"2014_Mar_14_1346",NA
"512",1,"left",2,0,2,0,0,1,1,6,2,0.658889804775,1,1,0.317206335811,2,0.187620675277,0.194388889,0.5,0.194388889,"metacognition_realexp","eb",85.3202923543,1,"2014_Mar_14_1346",NA
"513",1,"left",2,0,2,0,0,2,2,4,2,0.317745729034,1,1,0.293640126544,2,0.222876047746,0.194388889,0.666666666667,0.194388889,"metacognition_realexp","eb",85.3202923543,1,"2014_Mar_14_1346",NA
"514",2,"down",2,0,2,0,0,3,3,7,2,0.823552580059,2,1,0.798903349281,2,0.57638112193,0.194388889,0.75,0.194388889,"metacognition_realexp","eb",85.3202923543,1,"2014_Mar_14_1346",NA
"515",1,"left",2,0,2,0,0,4,4,2,2,0.376686277582,1,1,0.234724218371,1,0.305210707937,0.194388889,0.8,0.194388889,"metacognition_realexp","eb",85.3202923543,1,"2014_Mar_14_1346",NA
"516",2,"down",2,0,2,0,0,5,5,3,2,0.705947917176,1,0,0.198864386688,2,0.223581763504,0.194388889,0.666666666667,0.194388889,"metacognition_realexp","eb",85.3202923543,1,"2014_Mar_14_1346",NA
"517",1,"left",2,0,2,0,0,6,6,8,2,0.447149281791,1,1,1.01127220184,2,0.634610179633,0.194388889,0.714285714286,0.194388889,"metacognition_realexp","eb",85.3202923543,1,"2014_Mar_14_1346",NA
"518",2,"down",2,0,2,0,0,7,7,5,1,0.401096804721,2,1,0.223033900152,1,0.905518404628,0.194388889,0.75,0.194388889,"metacognition_realexp","eb",85.3202923543,1,"2014_Mar_14_1346",NA
"519",2,"down",2,0,2,0,0,8,8,9,1,1.32942103202,2,1,0.376029457569,1,1.32868297577,0.194388889,0.777777777778,0.194388889,"metacognition_realexp","eb",85.3202923543,1,"2014_Mar_14_1346",NA
"520",1,"left",2,0,2,0,0,9,9,0,2,0.105956310304,1,1,0.82304822237,2,0.916953463955,0.194388889,0.8,0.194388889,"metacognition_realexp","eb",85.3202923543,1,"2014_Mar_14_1346",NA
"521",1,"left",2,0,2,0,1,0,10,6,2,0.294209165219,1,1,0.799542459025,2,1.11693128762,0.194388889,0.818181818182,0.194388889,"metacognition_realexp","eb",85.3202923543,1,"2014_Mar_14_1346",NA
"522",2,"down",2,0,2,0,1,1,11,3,1,0.423592312665,2,1,0.187824343382,2,1.18738736172,0.194388889,0.833333333333,0.194388889,"metacognition_realexp","eb",85.3202923543,1,"2014_Mar_14_1346",NA
"523",1,"left",2,0,2,0,1,2,12,2,2,1.6705477825,1,1,0.199553162188,1,0.469934314149,0.194388889,0.846153846154,0.194388889,"metacognition_realexp","eb",85.3202923543,1,"2014_Mar_14_1346",NA
"524",1,"left",2,0,2,0,1,3,13,4,2,0.976558917641,1,1,0.52888025278,1,0.505290558155,0.194388889,0.857142857143,0.194388889,"metacognition_realexp","eb",85.3202923543,1,"2014_Mar_14_1346",NA
"525",2,"down",2,0,2,0,1,4,14,7,2,0.741054292373,2,1,0.270260645124,1,0.328599429498,0.194388889,0.866666666667,0.194388889,"metacognition_realexp","eb",85.3202923543,1,"2014_Mar_14_1346",NA
"526",2,"down",2,0,2,0,1,5,15,9,1,1.03533006361,2,1,0.211258495636,1,0.105317970572,0.194388889,0.875,0.194388889,"metacognition_realexp","eb",85.3202923543,1,"2014_Mar_14_1346",NA
"527",2,"down",2,0,2,0,1,6,16,1,1,0.823596855734,1,0,1.09359569687,2,0.916990039513,0.194388889,0.823529411765,0.194388889,"metacognition_realexp","eb",85.3202923543,1,"2014_Mar_14_1346",NA
"528",2,"down",2,0,2,0,1,7,17,5,1,0.600054747835,2,1,0.176031613602,2,0.775801457093,0.194388889,0.833333333333,0.194388889,"metacognition_realexp","eb",85.3202923543,1,"2014_Mar_14_1346",NA
"529",1,"left",2,0,2,0,1,8,18,8,1,0.553005490569,1,1,1.01122754116,1,0.811082239949,0.194388889,0.842105263158,0.194388889,"metacognition_realexp","eb",85.3202923543,1,"2014_Mar_14_1346",NA
"530",1,"left",2,0,2,0,1,9,19,0,2,0.811845706588,1,1,0.258338553371,1,0.622832080075,0.194388889,0.85,0.194388889,"metacognition_realexp","eb",85.3202923543,1,"2014_Mar_14_1346",NA
"531",1,"left",2,0,2,0,2,0,20,2,1,1.08238394094,1,1,0.823023967,2,0.964066632196,0.194388889,0.857142857143,0.194388889,"metacognition_realexp","eb",85.3202923543,1,"2014_Mar_14_1346",NA
"532",1,"left",2,0,2,0,2,1,21,0,1,0.447131956527,2,0,1.12891267027,1,0.834592238358,0.194388889,0.818181818182,0.194388889,"metacognition_realexp","eb",85.3202923543,1,"2014_Mar_14_1346",NA
"533",1,"left",2,0,2,0,2,2,22,6,2,0.458912366119,1,1,0.258362808741,2,0.352291535684,0.194388889,0.826086956522,0.194388889,"metacognition_realexp","eb",85.3202923543,1,"2014_Mar_14_1346",NA
"534",1,"left",2,0,2,0,2,3,23,4,2,0.352876744606,1,1,0.246767586972,2,1.50502990918,0.194388889,0.833333333333,0.194388889,"metacognition_realexp","eb",85.3202923543,1,"2014_Mar_14_1346",NA
"535",2,"down",2,0,2,0,2,4,24,5,2,1.00004735572,2,1,0.199562017323,2,0.611093251116,0.194388889,0.84,0.194388889,"metacognition_realexp","eb",85.3202923543,1,"2014_Mar_14_1346",NA
"536",2,"down",2,0,2,0,2,5,25,1,1,0.882409582334,1,0,0.552460322258,2,1.1875174937,0.194388889,0.807692307692,0.194388889,"metacognition_realexp","eb",85.3202923543,1,"2014_Mar_14_1346",NA
"537",2,"down",2,0,2,0,2,6,26,7,1,0.505938138027,2,1,0.505465350819,1,1.01104504838,0.194388889,0.814814814815,0.194388889,"metacognition_realexp","eb",85.3202923543,1,"2014_Mar_14_1346",NA
"538",2,"down",2,0,2,0,2,7,27,3,2,0.0470958429764,2,1,0.164338215336,2,0.175760954476,0.194388889,0.821428571429,0.194388889,"metacognition_realexp","eb",85.3202923543,1,"2014_Mar_14_1346",NA
