"","participant","blocks.thisRepN","trials.thisN","firstgabor","key_resp_5.keys","resp.keys","resp.corr","resp.rt","key_resp_2.keys","key_resp_2.rt","resp_mrating.keys","resp_mrating.rt"
"1","AS",0,0,2,2,1,0,3.08145229815,1,1.21179245337,2,1.05799552086
"2","AS",0,1,2,1,2,1,0.975973031213,2,2.63523221347,1,0.457530743563
"3","AS",0,2,2,1,2,1,0.940684684102,2,1.23530390129,1,1.36402665308
"4","AS",0,3,2,2,2,1,1.12896222452,2,1.52939951251,1,12.71610508
"5","AS",0,4,1,1,1,1,2.02304443759,1,1.12946080521,1,4.04604382967
"6","AS",0,5,1,2,1,1,0.72893111617,2,4.59980372476,1,0.905218464964
"7","AS",0,6,1,1,1,1,0.552480525515,2,1.03528411206,1,0.646380015501
"8","AS",0,7,1,2,1,1,0.564262044766,1,0.836194493436,1,0.834597880243
"9","AS",0,8,1,1,1,1,0.576049724087,2,1.99999845998,1,0.540461843563
"10","AS",0,9,2,2,2,1,0.458395463416,2,1.12942769483,2,0.834483148936
"11","AS",0,10,2,2,2,1,0.622256410612,1,1.27049715232,1,0.847281849777
"12","AS",0,11,2,2,2,1,0.564273594898,2,0.776509573327,2,0.598638701488
"13","AS",0,12,1,2,1,1,0.423753153667,1,2.26988923039,1,0.716966334831
"14","AS",0,13,2,1,2,1,0.422329792448,2,0.800776014843,2,0.364061303479
"15","AS",0,14,1,1,1,1,0.435459597062,2,0.728839485126,2,0.457548453765
"16","AS",0,15,1,2,2,0,1.29362398085,1,0.376563550942,1,0.822831761168
"17","AS",0,16,2,2,1,0,0.458320772565,1,0.847105902772,1,0.517099392348
"18","AS",0,17,1,2,1,1,0.52974640146,2,0.869965923262,1,0.340404323907
"19","AS",0,18,2,1,1,0,0.423104036271,1,1.43463607268,1,0.705881288517
"20","AS",0,19,1,2,1,1,0.587777727727,2,0.988263141258,2,1.21111831069
"21","AS",0,20,1,2,1,1,0.493025068021,2,0.882427360259,2,0.458743507382
"22","AS",0,21,1,2,1,1,1.20015954582,2,0.764088176785,2,0.516973110909
"23","AS",0,22,1,2,1,1,0.446602394034,1,1.07126585207,1,0.446431067082
"24","AS",0,23,2,1,2,1,0.352456501242,2,0.882398869935,2,0.352314819627
"25","AS",0,24,1,2,1,1,0.434711148534,2,1.08169446591,1,0.81183064581
"26","AS",0,25,2,2,2,1,0.752472209421,2,1.27060033349,2,1.43457293196
"27","AS",0,26,2,1,2,1,0.90539094693,2,0.587662226411,2,0.658117259246
"28","AS",0,27,2,1,2,1,1.71708761121,2,1.48235852147,2,0.833963393013
"29","AS",0,28,2,1,2,1,0.57601661371,1,0.611827411773,1,0.528741925014
"30","AS",0,29,1,1,1,1,0.458438583908,2,0.858858546693,1,0.611062408056
"31","AS",0,30,2,2,2,1,0.528972157638,2,0.917721097432,2,1.7992013469
"32","AS",0,31,1,1,1,1,0.434848980104,2,0.929452951116,1,0.551643910982
"33","AS",0,32,2,1,2,1,0.68124524279,2,1.37644997465,1,0.811737859753
"34","AS",0,33,1,1,1,1,0.481229303608,2,1.21175241292,2,1.45881896824
"35","AS",0,34,1,1,1,1,0.423723123325,2,1.98749852255,2,0.446395261674
"36","AS",0,35,2,1,2,1,0.811946147126,1,0.893499316425,1,0.622850857385
"37","AS",0,36,2,1,2,1,0.739983052107,2,2.6587625266,1,1.48231309096
"38","AS",0,37,1,1,1,1,0.517134812751,2,0.553037626863,1,0.54055193459
"39","AS",0,38,2,1,1,0,0.51634401374,1,0.44729886697,1,0.528754630159
"40","AS",0,39,1,1,1,1,0.470789139642,2,1.03466695003,2,0.42220890107
"41","AS",0,40,2,1,2,1,0.752487224592,2,1.35293082665,2,2.01033043772
"42","AS",0,41,2,2,2,1,0.952182070114,2,0.788501304972,1,0.469259902216
"43","AS",0,42,2,2,2,1,0.457657025001,2,0.835352873846,2,0.553001821456
"44","AS",0,43,2,2,2,1,0.705501674192,2,3.47043185557,2,2.56381659469
"45","AS",0,44,1,1,2,0,1.6700485452,2,0.858890502057,1,0.658149214611
"46","AS",0,45,1,1,1,1,0.623573125616,2,1.98759785368,2,0.928069630353
"47","AS",0,46,1,1,1,1,0.775999442514,1,0.941203285011,2,0.82217032363
"48","AS",0,47,1,1,1,1,0.494272482235,2,1.45820334623,1,1.45844820902
"49","AS",0,48,1,1,1,1,0.528253739451,1,1.25884114449,1,0.447141785181
"50","AS",0,49,2,1,1,0,0.470216253114,1,0.776471457892,1,0.43390340933
"52","AS",1,0,1,1,1,1,0.740471622674,1,0.105914321894,1,0.60119436061
"53","AS",1,1,2,2,2,1,0.893719923939,2,1.7646687634,1,0.869820776608
"54","AS",1,2,1,1,1,1,0.799504730357,1,0.83538482921,2,0.787514923732
"55","AS",1,3,1,1,1,1,0.858323775599,2,1.63529881923,1,1.02287580567
"56","AS",1,4,2,1,2,1,0.469875909236,2,0.976714549663,2,0.964090640813
"57","AS",1,5,2,1,1,0,0.62308032,1,0.400062678714,1,0.575834891639
"58","AS",1,6,2,1,2,1,0.540650880717,2,2.31765017962,2,0.952262536032
"59","AS",1,7,1,1,1,1,0.787735916251,1,1.38828192947,1,0.752259301995
"60","AS",1,8,2,1,2,1,0.623009479193,2,1.51765880372,2,0.728771724354
"61","AS",1,9,1,2,1,1,0.399555627936,2,0.435407236465,2,1.01106271606
"62","AS",1,10,1,1,1,1,0.352470746404,2,0.835364423978,2,0.905167259381
"63","AS",1,11,1,1,1,1,0.528918642028,2,2.34112466712,1,0.692839264903
"64","AS",1,12,2,2,2,1,0.222908685044,2,0.611996813704,2,0.199344876535
"65","AS",1,13,1,1,2,0,0.246091724215,1,1.25882227928,1,0.223394945585
"66","AS",1,14,2,1,1,0,0.211669251971,1,0.505966990494,1,0.175418008888
"67","AS",1,15,2,1,2,1,2.18764959827,2,1.25881265417,1,0.340584120956
"68","AS",1,16,2,2,2,1,0.175212031541,2,0.353038627875,2,0.141362445826
"69","AS",1,17,1,1,1,1,0.481273579112,2,0.858845841548,2,0.834654090883
"70","AS",1,18,1,1,1,1,0.352528497062,2,0.835299358236,2,0.434633762652
"71","AS",1,19,2,2,1,0,0.234814945716,2,0.717729028522,2,0.575851831832
"72","AS",1,20,1,1,1,1,0.364077858667,2,1.30612738332,2,0.64631417975
"73","AS",1,21,2,1,1,0,0.470833800151,1,0.599414870332,2,0.516123406226
"74","AS",1,22,1,1,1,1,1.52822909917,2,0.788288012542,1,0.341160087519
"75","AS",1,23,1,1,1,1,0.470114611956,2,1.02358113371,2,0.811020981584
"76","AS",1,24,2,2,2,1,0.340747362816,2,0.682329415144,2,0.31700221724
"77","AS",1,25,1,2,1,1,0.282569349878,2,0.481717874175,2,0.352317899662
"78","AS",1,26,2,2,1,0,0.481863020829,2,0.764761164453,1,0.469278767432
"79","AS",1,27,1,1,1,1,0.328565053999,2,0.728846415205,2,0.470946221432
"80","AS",1,28,2,1,1,0,0.293606270644,1,0.470710213743,1,0.293783372661
"81","AS",1,29,2,1,2,1,0.316509796629,2,0.741240091431,2,0.294186857259
"82","AS",1,30,1,2,1,1,0.269477275694,2,1.74116232054,2,0.329455569146
"83","AS",1,31,2,1,2,1,0.281887892113,2,0.729470122312,2,0.717015230388
"84","AS",1,32,2,1,2,1,0.505414124194,2,0.729489757536,2,0.705262586467
"85","AS",1,33,2,2,2,1,0.482542168568,2,0.317072288039,2,0.611133248864
"86","AS",1,34,1,1,1,1,0.481905371311,2,1.08232702812,2,0.49348745829
"87","AS",1,35,1,1,1,1,0.282537394514,1,0.576385062908,1,0.246466333484
"88","AS",1,36,2,1,1,0,0.364398567322,1,0.28242651325,1,0.516926140373
"89","AS",1,37,2,1,1,0,0.588589316975,1,0.681574806545,1,0.598692602102
"90","AS",1,38,1,1,1,1,0.36370517442,2,0.741217761176,2,0.611675720045
"91","AS",1,39,1,1,1,1,0.646536712286,1,0.764139382368,1,0.588212012676
"92","AS",1,40,1,1,2,0,0.611309580872,2,0.988282391478,1,0.916967643846
"93","AS",1,41,2,2,1,0,0.575307820633,1,0.588317118874,1,0.588274768391
"94","AS",1,42,1,1,1,1,0.540725186563,2,1.97635996062,1,1.6103643951
"95","AS",1,43,2,1,2,1,0.576690371387,2,1.29348306924,1,0.728792514591
"96","AS",1,44,1,1,1,1,0.576697301466,2,1.1640634595,2,0.669946134036
"97","AS",1,45,2,1,1,0,0.964194206993,1,4.41154235452,2,0.646438151163
"98","AS",1,46,2,2,2,1,0.223061531786,2,0.423612627066,2,0.210486903498
"99","AS",1,47,1,2,1,1,0.234151583157,2,0.635414320546,2,0.235331621604
"100","AS",1,48,2,2,2,1,0.199552778904,2,0.69418254521,2,0.211146801018
"101","AS",1,49,1,1,1,1,1.08186810289,1,0.539748045429,1,0.716006903899
"103","AS",2,0,1,1,1,1,0.399411636296,2,0.67065993217,2,0.468870662781
"104","AS",2,1,1,1,1,1,0.246551419453,2,0.411861138158,2,0.305271518569
"105","AS",2,2,1,1,2,0,1.04655280547,1,0.905939963186,1,0.728738228972
"106","AS",2,3,1,1,1,1,0.729610263909,2,1.62353193015,2,0.740410791981
"107","AS",2,4,2,2,2,1,0.152521797986,2,0.141888361818,2,0.786950892305
"108","AS",2,5,2,2,2,1,0.199665585189,2,0.188200539545,2,0.468885292948
"109","AS",2,6,2,1,2,1,0.998844601834,2,0.753030850787,1,0.505204296803
"110","AS",2,7,2,1,2,1,0.245924632311,2,0.411796457421,2,0.329439013958
"111","AS",2,8,2,1,2,1,0.682829920847,2,1.25817354689,2,0.64610358235
"112","AS",2,9,1,1,1,1,0.82305044366,2,0.964744763266,1,0.669930348857
"113","AS",2,10,1,1,1,1,0.728944206319,2,0.694119789495,2,0.787557274215
"114","AS",2,11,2,1,2,1,0.646593307931,2,1.78817790129,2,0.952274856172
"115","AS",2,12,1,1,1,1,1.29362744588,1,0.764745379273,2,0.705231016107
"116","AS",2,13,2,1,2,1,0.682518837302,2,0.846413279879,2,0.705187895616
"117","AS",2,14,1,1,1,1,1.42302203034,2,1.29415066685,1,0.516976575948
"118","AS",2,15,1,1,1,1,0.564208144152,2,0.858857776684,1,0.62224486048
"119","AS",2,16,2,1,2,1,0.517145207869,2,0.470009890763,2,0.882971371459
"120","AS",2,17,1,1,1,1,0.646567127632,2,1.05888334098,2,0.599312074161
"121","AS",2,18,2,1,2,1,0.56492502232,2,0.446474572578,2,0.552239897774
"122","AS",2,19,2,2,2,1,0.693005201794,2,0.435342170724,1,0.552966786056
"123","AS",2,20,2,1,2,1,0.575984273341,2,0.659851319006,2,1.41105493897
"124","AS",2,21,2,1,2,1,0.505424134308,2,0.588293633606,2,0.458164460784
"125","AS",2,22,1,1,2,0,0.528909786927,2,0.494208571507,2,0.598685672023
"126","AS",2,23,1,1,1,1,0.576655335988,2,0.893528961763,1,0.599319389245
"127","AS",2,24,2,2,2,1,0.305450930613,2,0.353008597533,2,0.269933505892
"128","AS",2,25,2,1,2,1,0.424050762058,2,0.610852580665,2,0.422822983068
"129","AS",2,26,1,1,1,1,0.340599136127,2,0.470738319063,1,0.316314599405
"130","AS",2,27,1,1,1,1,0.517184478317,2,1.04705138615,1,0.517020851452
"131","AS",2,28,2,1,1,0,1.22237121892,2,0.553009521544,1,0.30588945061
"132","AS",2,29,1,1,1,1,0.764244873571,2,0.76478195469,1,0.811083737299
"133","AS",2,30,2,1,2,1,0.4936726454,2,0.5883194289,2,0.505193131676
"134","AS",2,31,1,2,1,1,0.587487434419,2,1.15323867616,2,0.551552664943
"135","AS",2,32,2,1,2,1,0.493800851861,2,0.857853300238,2,0.506027051179
"136","AS",2,33,2,1,2,1,0.398806024395,2,0.741261266672,2,0.48237469166
"137","AS",2,34,1,1,1,1,0.564884981864,2,1.3287494711,2,1.70446524238
"138","AS",2,35,2,1,2,1,0.435460367071,2,0.917060044899,2,0.481787559969
"139","AS",2,36,2,1,2,1,0.493656475216,2,0.647763721268,2,0.916322761498
"140","AS",2,37,1,1,1,1,0.493617974777,2,0.964761318455,2,0.940512202136
"141","AS",2,38,1,1,1,1,0.505300162895,1,0.58831326883,1,0.481809120215
"142","AS",2,39,1,1,1,1,0.411299801761,2,0.658918068371,2,0.386887443582
"143","AS",2,40,1,2,1,1,0.764180192833,1,1.54124070744,1,0.657499712209
"144","AS",2,41,1,1,1,1,0.482055523023,2,1.38823457393,1,1.05732561323
"145","AS",2,42,2,2,2,1,0.388417066013,1,0.564136533335,1,0.398712853333
"146","AS",2,43,1,2,1,1,1.11712757467,1,0.764733444138,2,0.516983506027
"147","AS",2,44,2,1,2,1,0.845839238338,1,0.764836625313,1,0.611756570966
"148","AS",2,45,2,2,2,1,0.551661621184,2,0.776533443599,2,0.470051471237
"149","AS",2,46,2,2,2,1,0.163596834186,2,0.282444223452,2,0.17581571842
"150","AS",2,47,1,1,1,1,1.99941594834,1,0.458875178882,2,0.458205656254
"151","AS",2,48,2,1,2,1,0.199597824417,2,0.752956929945,2,0.199343336517
"152","AS",2,49,1,2,1,1,0.270186453775,2,0.682355980447,2,0.258284428151
"154","AS",3,0,1,1,1,1,0.305241103223,1,0.317705235251,1,0.316800089937
"155","AS",3,1,2,1,2,1,0.611337686193,2,1.44706709433,2,0.633920888529
"156","AS",3,2,1,1,1,1,0.363468396722,1,0.976504337267,1,0.329527949971
"157","AS",3,3,2,2,1,0,0.905393256956,1,0.729455107141,1,0.740498572981
"158","AS",3,4,2,2,2,1,0.35246073629,2,1.00004504551,2,0.281745055485
"159","AS",3,5,2,1,2,1,0.728936891236,2,0.764784649721,1,0.810450405082
"160","AS",3,6,2,1,1,0,0.223751459648,1,0.434693823336,1,0.23466787404
"161","AS",3,7,1,1,1,1,0.552471670415,2,0.894154208887,2,0.64639926572
"162","AS",3,8,1,1,1,1,0.846441770204,2,2.10585772625,2,0.740488947872
"163","AS",3,9,1,1,1,1,0.446617024201,2,0.882379234712,2,0.834589410146
"164","AS",3,10,2,1,2,1,0.623032579456,2,0.752977335177,2,0.634641231737
"165","AS",3,11,2,2,2,1,0.235519118741,2,0.446454937354,2,0.257508644311
"166","AS",3,12,2,1,1,0,0.422294372044,1,0.423628412246,1,0.469975625373
"167","AS",3,13,1,1,1,1,0.423024340362,2,0.647119608928,2,0.786631338664
"168","AS",3,14,1,2,1,1,0.317347566176,2,0.84694073589,2,0.704533003153
"169","AS",3,15,2,1,2,1,0.399563328024,2,0.482418967164,2,0.611075498206
"170","AS",3,16,1,1,1,1,0.952460043282,2,0.964750538333,2,0.669907248593
"171","AS",3,17,1,1,1,1,0.647227410157,1,0.446492667784,1,0.869243655031
"172","AS",3,18,1,1,1,1,0.50434227198,2,1.29412410154,1,0.906252586748
"173","AS",3,19,2,1,2,1,1.19948655815,2,1.36473660117,2,0.433970400093
"174","AS",3,20,2,2,2,1,0.587795822933,2,0.588296328637,2,0.893388050157
"175","AS",3,21,2,2,2,1,0.411309426871,2,0.458309992442,2,0.376361038634
"176","AS",3,22,2,2,2,1,0.411979719509,2,0.646431991092,2,0.458162535762
"177","AS",3,23,2,2,2,1,0.375968719164,2,0.376592426271,2,0.398699763184
"178","AS",3,24,1,2,1,1,0.975326993851,1,0.670559061021,2,0.54116370656
"179","AS",3,25,1,1,1,1,0.705395797985,2,0.95300482449,2,1.24631425675
"180","AS",3,26,1,1,1,1,0.506122532267,2,0.999294671963,2,0.657500867222
"181","AS",3,27,1,2,1,1,0.952460428286,2,0.788279542445,2,0.481663203552
"182","AS",3,28,2,1,2,1,0.399633013818,2,0.564773715596,2,0.552132866554
"183","AS",3,29,1,2,1,1,0.49362259483,2,0.812401607316,2,1.32875678618
"184","AS",3,30,2,1,2,1,0.587081639795,2,0.753611052398,2,0.564742530241
"185","AS",3,31,1,2,1,1,0.518069218399,2,0.599116106928,2,0.575807556327
"186","AS",3,32,2,1,2,1,0.588417990023,2,0.858203269226,2,0.763498350064
"187","AS",3,33,2,1,2,1,0.893627137882,2,0.870617735689,2,0.539972502987
"188","AS",3,34,1,2,1,1,0.56372881369,2,0.765015652353,2,0.75244063906
"189","AS",3,35,1,1,1,1,0.505439534483,1,0.389252910537,1,0.410413906667
"190","AS",3,36,2,1,2,1,0.588511546089,2,0.493533273811,2,0.587430838775
"191","AS",3,37,1,2,1,1,0.45767088516,1,0.282446148474,1,0.482376231676
"192","AS",3,38,1,1,1,1,0.623049904653,1,0.576530979571,1,2.08064109391
"193","AS",3,39,2,1,2,1,0.658212740334,2,1.25891814537,1,0.940501037009
"194","AS",3,40,1,1,1,1,0.517332705006,2,1.07058631933,2,0.622718415876
"195","AS",3,41,2,1,2,1,0.51714520787,2,0.894122253523,2,0.611186764473
"196","AS",3,42,1,1,1,1,0.446607014087,2,0.423629567259,2,0.516962330786
"197","AS",3,43,1,2,1,1,0.587790817876,2,0.78827107235,2,0.599301294038
"198","AS",3,44,2,2,1,0,0.905400187035,1,1.0235541834,1,1.09342323956
"199","AS",3,45,2,1,2,1,0.587737302267,2,0.717092231266,2,0.705232941129
"200","AS",3,46,1,1,1,1,0.646580217781,2,0.8117682751,1,0.905176499487
"201","AS",3,47,2,1,2,1,0.623128060544,2,0.694164064999,2,1.46981238351
"202","AS",3,48,2,1,1,0,0.235478308276,1,0.375917128576,1,0.222904449996
"203","AS",3,49,1,1,1,1,0.31719356442,1,0.400063448723,1,0.340496339956
"205","AS",4,0,2,1,1,0,0.258115411225,1,0.435403386422,1,0.269741773707
"206","AS",4,1,2,1,2,1,0.317227059802,1,0.42358760178,1,0.269243578031
"207","AS",4,2,2,1,1,0,0.353156824222,1,0.270026676954,1,0.363402945976
"208","AS",4,3,2,1,2,1,0.552437405025,2,1.01181809467,2,0.528784275496
"209","AS",4,4,1,2,1,1,0.563580201997,1,0.600064372734,1,0.471593798811
"210","AS",4,5,1,1,2,0,0.599546926836,2,0.576539064663,1,0.552270698125
"211","AS",4,6,1,1,1,1,0.49438875356,1,1.06995683716,1,0.598587495905
"212","AS",4,7,2,1,2,1,0.528958682484,2,0.811811395591,2,0.540541154466
"213","AS",4,8,1,2,1,1,0.375977959268,2,0.682463396671,2,0.340531760359
"214","AS",4,9,1,2,1,1,0.517173698194,2,0.764715733935,2,0.764041591254
"215","AS",4,10,1,1,1,1,0.399532527674,2,0.823587909784,1,0.528764255268
"216","AS",4,11,2,1,2,1,0.540434893255,2,0.976761520198,2,0.551851043343
"217","AS",4,12,2,1,2,1,0.517528672239,2,0.751957458555,2,0.576470533882
"218","AS",4,13,2,2,1,0,0.587711121968,1,0.364882517836,1,0.540543079488
"219","AS",4,14,1,1,1,1,0.282116969724,2,0.81180254049,2,0.28083105507
"220","AS",4,15,1,1,1,1,0.399537147726,2,0.763948420193,2,0.776672045177
"221","AS",4,16,2,2,2,1,0.388855586009,2,0.716956324717,2,0.410713825085
"222","AS",4,17,2,2,2,1,0.787112209144,1,0.776528053537,1,0.552922125547
"223","AS",4,18,1,1,1,1,0.223114277387,1,0.400059598679,1,0.211087125338
"224","AS",4,19,1,1,1,1,0.3415269967,2,0.540603140173,2,0.493304581206
"225","AS",4,20,1,1,1,1,0.423080551003,2,0.788320737915,2,0.505206991834
"226","AS",4,21,1,1,1,1,0.364281910993,2,0.729437011934,2,0.505241257224
"227","AS",4,22,2,1,2,1,0.506168347789,2,0.622913998105,2,0.540462613571
"228","AS",4,23,1,2,1,1,0.575986198363,2,0.811789065337,2,0.622900522952
"229","AS",4,24,2,2,1,0,0.540689766161,2,0.75300659551,2,0.599324394301
"230","AS",4,25,1,1,1,1,0.481972362075,2,0.611789296339,2,0.505143081105
"231","AS",4,26,2,2,1,0,0.387746003365,1,0.658862242735,1,0.340554860622
"232","AS",4,27,1,2,1,1,0.352551212321,2,0.530167981265,2,0.387541181032
"233","AS",4,28,2,1,2,1,0.317235529899,2,0.364762011463,2,0.269245888057
"234","AS",4,29,2,1,1,0,0.434736558824,1,0.84619305737,2,0.386987929727
"235","AS",4,30,2,2,2,1,0.435505412584,2,0.775856605886,2,0.364066308535
"236","AS",4,31,1,2,1,1,0.363553867696,2,0.564735600162,2,0.387582761506
"237","AS",4,32,1,1,1,1,0.776006757597,2,0.588289783562,2,0.492775970182
"238","AS",4,33,2,2,2,1,0.599480706083,2,0.706002949903,2,0.505093415539
"239","AS",4,34,1,2,1,1,0.31719086939,2,0.353036317849,2,0.30525842842
"240","AS",4,35,1,2,1,1,0.293775672573,2,0.670487450205,2,0.364087868781
"241","AS",4,36,2,2,2,1,0.281115958316,2,0.529560059336,2,0.27063536889
"242","AS",4,37,2,2,2,1,1.48118117806,1,0.482386241792,1,0.694087834131
"243","AS",4,38,1,2,1,1,0.870126470091,2,0.411824562741,1,0.470059941334
"244","AS",4,39,2,1,2,1,0.151798759746,2,0.341282903919,2,0.141216144158
"245","AS",4,40,1,2,1,1,0.258368359107,2,0.552961010991,2,0.281730425318
"246","AS",4,41,1,1,1,1,0.363672064042,2,0.905953053335,1,0.341086166677
"247","AS",4,42,2,1,2,1,0.528960222502,2,0.658893428091,2,1.06988869138
"248","AS",4,43,2,2,2,1,0.529600099793,2,0.611167899258,2,0.517012381356
"249","AS",4,44,2,1,1,0,0.494315602727,2,0.693508787533,2,0.493459737974
"250","AS",4,45,1,1,1,1,0.434795464495,2,0.988273921382,2,0.399382375962
"251","AS",4,46,1,2,1,1,0.646589842891,2,0.388321969929,2,0.446543488363
"252","AS",4,47,2,2,1,0,0.49368843058,2,0.517716169376,1,0.398661262746
"253","AS",4,48,1,2,2,0,0.352574312584,2,0.40006845378,1,0.387525395852
"254","AS",4,49,2,1,1,0,0.447258826514,1,0.400089629021,1,0.42285917348
"256","AS",5,0,1,1,1,1,0.36402549807,2,1.25887117484,2,0.387337128706
"257","AS",5,1,1,1,1,1,0.387478425316,2,0.77651342337,2,0.386968294504
"258","AS",5,2,1,1,1,1,0.34070039228,2,0.482375461668,2,0.386980229639
"259","AS",5,3,2,2,2,1,0.646469721522,2,1.50596699049,2,0.422910764069
"260","AS",5,4,2,2,1,0,0.376023004783,2,0.446188514318,2,0.305891760637
"261","AS",5,5,1,2,1,1,0.434823569814,2,0.705845868114,2,0.458175240907
"262","AS",5,6,2,1,2,1,0.705493974104,2,0.694168685052,2,0.716884328897
"263","AS",5,7,1,1,1,1,0.434211412839,1,0.176536831637,1,0.482372381633
"264","AS",5,8,2,1,2,1,0.411351007345,2,0.423595301868,2,0.446396416687
"265","AS",5,9,2,2,2,1,0.15253796817,2,0.494195866362,2,0.152284635283
"266","AS",5,10,2,2,2,1,0.152489457618,2,0.505941195201,2,0.164125830214
"267","AS",5,11,2,1,2,1,0.128963764542,2,0.447108674803,2,0.175868464021
"268","AS",5,12,1,2,1,1,0.223840780665,2,0.528782350475,2,0.246285381421
"269","AS",5,13,1,2,1,1,0.246649210568,2,0.54128652296,2,0.552223342585
"270","AS",5,14,2,1,2,1,0.670109375897,2,0.505969685525,2,0.505238562194
"271","AS",5,15,1,2,1,1,0.411314816933,2,0.400006468073,1,0.505234327145
"272","AS",5,16,2,2,2,1,0.317175854219,2,0.470680953409,2,0.269278228426
"273","AS",5,17,1,2,1,1,0.399620693678,2,0.694157519925,1,0.387540411023
"274","AS",5,18,1,1,1,1,0.317198954482,2,0.601045748916,2,0.317024547495
"275","AS",5,19,2,1,2,1,0.22306191679,2,0.470655158116,2,0.211179141386
"276","AS",5,20,1,2,1,1,0.387121911254,2,0.647114218867,2,0.423557186434
"277","AS",5,21,2,1,2,1,0.175914664548,2,0.353080978358,2,0.152338150893
"278","AS",5,22,2,2,2,1,0.164877743781,2,0.446482272666,2,0.152339690911
"279","AS",5,23,1,1,1,1,0.0937092978174,2,0.424261359459,1,0.527966141174
"280","AS",5,24,2,1,2,1,0.129633287172,2,0.446379476494,2,0.175202791436
"281","AS",5,25,1,2,1,1,0.142404267697,1,0.411215485801,1,0.163078233277
"282","AS",5,26,2,1,2,1,0.140042265782,2,0.482437447375,2,0.153022688694
"283","AS",5,27,1,1,2,0,0.376879639543,2,0.916791311837,2,0.445777329633
"284","AS",5,28,2,2,2,1,0.398925375755,1,0.470676333357,1,0.35291619648
"285","AS",5,29,1,1,1,1,0.116485002347,2,0.764775024611,2,0.175968565162
"286","AS",5,30,2,2,2,1,0.152482527538,2,0.635346174769,2,0.175856913889
"287","AS",5,31,2,2,2,1,0.128947979362,2,0.682427591262,2,0.152320055687
"288","AS",5,32,1,2,1,1,0.129658312457,2,0.364089408798,2,0.152792841075
"289","AS",5,33,1,1,1,1,0.129224797516,2,0.470436090619,2,0.222830529154
"290","AS",5,34,1,2,1,1,0.140256713225,2,0.353034007822,2,0.164611705751
"291","AS",5,35,2,1,2,1,0.199529678641,1,0.646479731636,1,0.199321776272
"292","AS",5,36,1,1,1,1,0.152484837565,2,0.482444762458,2,0.175903884425
"293","AS",5,37,1,1,1,1,0.234854216164,2,0.423598381904,2,0.222896749909
"294","AS",5,38,2,2,1,0,0.280868785499,1,0.470679413392,1,0.305603007346
"295","AS",5,39,2,2,2,1,0.505404499084,2,0.729457417167,1,0.434929446021
"296","AS",5,40,2,1,1,0,0.246579139769,1,0.564779875667,1,0.269962381221
"297","AS",5,41,1,1,1,1,0.364896762999,2,0.599331709384,2,0.363384080762
"298","AS",5,42,2,2,2,1,0.176006680596,2,0.470647843032,2,0.175848828798
"299","AS",5,43,2,2,1,0,0.199543923803,2,0.41185343807,2,0.199394542101
"300","AS",5,44,1,2,1,1,0.505447234572,2,0.752973870137,2,0.446427602043
"301","AS",5,45,2,2,1,0,0.623070309886,2,0.800070686805,2,0.328100738708
"302","AS",5,46,1,2,1,1,0.245957742688,2,0.458908674264,2,0.23533046659
"303","AS",5,47,2,2,1,0,0.376007604607,1,0.35303285281,1,0.328748701092
"304","AS",5,48,1,1,1,1,0.293638226008,2,0.482434752344,1,0.399377370905
"305","AS",5,49,1,1,1,1,0.41194468411,1,0.646498981856,1,0.387628577027
"307","AS",6,0,1,1,1,1,0.199255940522,1,0.788776198105,1,0.210966233961
"308","AS",6,1,2,2,2,1,0.411286711612,2,0.717717478391,2,0.364074393628
"309","AS",6,2,1,1,1,1,0.258383374279,1,0.411835342864,1,0.222191806875
"310","AS",6,3,1,1,1,1,0.234786455391,1,2.45881203816,1,0.211246517154
"311","AS",6,4,2,2,1,0,0.622503968432,2,0.600108263233,1,0.329254596856
"312","AS",6,5,1,2,1,1,0.246586069848,2,2.07057746423,2,0.269995106594
"313","AS",6,6,1,1,1,1,0.493011592867,2,0.635346944779,2,0.611080118258
"314","AS",6,7,2,1,2,1,0.787839482431,2,0.576504414267,2,0.375734251492
"315","AS",6,8,2,2,2,1,0.340731192632,2,0.552967556065,2,0.305213382907
"316","AS",6,9,2,2,2,1,0.151868060537,2,0.423580286697,2,0.152948382847
"317","AS",6,10,1,2,2,0,0.187977622005,2,0.764789654778,2,0.175616671152
"318","AS",6,11,1,2,1,1,0.223770324863,2,0.446474957582,2,0.25803687033
"319","AS",6,12,2,1,1,0,1.11718917537,2,0.564804515948,2,0.363941567114
"320","AS",6,13,1,2,1,1,0.457732100857,2,0.611826641764,2,0.282361447509
"321","AS",6,14,2,1,2,1,0.541237242398,2,0.575896877345,2,0.504811977333
"322","AS",6,15,1,1,1,1,0.458323467596,2,0.70585433821,2,1.23462359854
"323","AS",6,16,1,1,1,1,0.516944235579,2,0.635386215226,1,0.211104835539
"324","AS",6,17,2,2,1,0,0.164383398149,1,0.48228075059,1,0.152355861094
"325","AS",6,18,2,1,1,0,0.152481757529,1,0.494190091296,1,0.152342385942
"326","AS",6,19,2,1,2,1,0.517191408397,2,0.72946819729,2,0.528709199642
"327","AS",6,20,1,2,1,1,0.305423210298,2,0.482436292361,2,0.352284404281
"328","AS",6,21,2,1,2,1,0.587754627464,2,0.670643761985,2,0.493497083399
"329","AS",6,22,2,1,2,1,0.62240810234,2,0.611780056233,2,0.517656108692
"330","AS",6,23,1,1,1,1,0.52892672712,2,0.541268812758,2,0.505230477102
"331","AS",6,24,2,1,2,1,0.646596387966,2,0.600096328098,2,0.893404220341
"332","AS",6,25,1,2,1,1,0.317285965473,2,0.423612627066,2,0.4463975717
"333","AS",6,26,2,2,2,1,0.622412722393,2,0.4824309023,2,0.42351291093
"334","AS",6,27,1,2,1,1,0.422188495838,2,0.470811469897,2,0.388290014565
"335","AS",6,28,2,2,2,1,0.859041038773,2,0.752345542977,2,0.340525215285
"336","AS",6,29,1,2,1,1,0.140714098437,1,0.482454772572,1,0.15167093829
"337","AS",6,30,2,1,2,1,0.176018615733,2,0.553012216575,2,0.164146235446
"338","AS",6,31,1,2,1,1,0.198842060806,2,0.400063063718,2,0.164704106803
"339","AS",6,32,1,1,1,1,0.834822337801,2,0.635363499968,2,0.352291719364
"340","AS",6,33,2,2,2,1,0.398723248451,2,0.647180824626,2,0.317016462403
"341","AS",6,34,1,2,1,1,0.340065905051,2,0.576531364575,2,0.34123824341
"342","AS",6,35,2,2,1,0,1.45765240495,2,0.494176616143,1,0.411767197087
"343","AS",6,36,1,1,1,1,0.505414124194,2,0.505964295464,1,0.222882119742
"344","AS",6,37,1,2,1,1,0.363602378249,2,0.458909829277,1,0.258836909446
"345","AS",6,38,2,1,1,0,0.340708477373,2,0.388264604275,1,0.304464164369
"346","AS",6,39,2,1,2,1,1.02221860318,2,0.517727719507,2,0.282590525118
"347","AS",6,40,2,1,1,0,0.505406424106,2,0.411851128044,1,0.480955565488
"348","AS",6,41,2,1,1,0,0.140827674731,1,0.376550460793,1,0.175033389505
"349","AS",6,42,2,1,1,0,0.188422687076,1,0.0112313479813,1,0.187611867837
"350","AS",6,43,2,1,1,0,0.164881208821,1,0.328851882267,1,0.164091179819
"351","AS",6,44,2,1,1,0,0.187805525044,1,0.176525666509,1,0.658188485058
"352","AS",6,45,1,2,2,0,0.45900223033,1,1.18760108771,1,0.410479357412
"353","AS",6,46,1,1,1,1,0.387786428826,2,0.788308802779,2,0.43461605245
"354","AS",6,47,1,2,2,0,0.141412496395,2,0.340585660973,2,0.187599932701
"355","AS",6,48,1,1,1,1,0.375996824484,2,0.753028925765,1,0.610446016032
"356","AS",6,49,1,2,1,1,0.328894232749,2,0.753011215563,2,0.328800676684
"358","AS",7,0,1,1,1,1,0.693387126146,1,1.20005482463,1,0.292328056078
"359","AS",7,1,1,1,2,0,0.681860094796,2,0.788311882814,2,0.49347513815
"360","AS",7,2,2,2,2,1,0.505442999523,2,0.505747922998,1,0.387572751391
"361","AS",7,3,2,1,2,1,0.693705909779,2,0.635316144428,1,0.469904399561
"362","AS",7,4,2,2,2,1,0.152256144958,2,0.529659390469,2,0.175827268552
"363","AS",7,5,2,2,1,0,0.164243256551,1,0.388309649788,1,0.14055201159
"364","AS",7,6,1,1,1,1,0.152469437389,1,0.42360762201,1,0.18768578868
"365","AS",7,7,2,1,2,1,0.458428573794,2,0.600088243005,2,0.340413179008
"366","AS",7,8,1,2,1,1,0.51717600822,2,0.517698459174,2,0.399348880581
"367","AS",7,9,1,2,2,0,0.176841755112,2,0.199220520118,2,0.175870004039
"368","AS",7,10,2,1,1,0,0.152465202342,1,0.482467092713,1,0.164066154533
"369","AS",7,11,1,2,1,1,0.176087146513,1,0.388302334705,1,0.175739872556
"370","AS",7,12,1,1,1,1,0.152449032156,1,0.306016887062,1,0.187592617618
"371","AS",7,13,1,1,1,1,0.352441486071,2,0.658894198099,1,0.375991434423
"372","AS",7,14,2,2,1,0,0.563589827107,1,0.811836035872,1,0.317660189738
"373","AS",7,15,2,1,1,0,0.175970490183,1,0.529505003709,1,0.175860763934
"374","AS",7,16,2,1,2,1,0.3642738259,2,0.64709342863,2,0.328765641284
"375","AS",7,17,2,2,2,1,0.258302908361,2,0.505954285349,1,0.234616668457
"376","AS",7,18,1,2,1,1,0.176595737309,1,0.35231597464,1,0.15245904227
"377","AS",7,19,1,2,1,1,0.387802984015,2,0.400045738521,2,0.399345415541
"378","AS",7,20,1,2,1,1,0.292985643571,2,0.447146790238,2,0.505891529634
"379","AS",7,21,1,2,1,1,0.470680183401,2,0.528901701835,1,0.199335251426
"380","AS",7,22,1,2,1,1,0.352447261137,2,0.423621482167,2,0.504590599809
"381","AS",7,23,2,2,2,1,0.34076006796,2,0.470597792462,1,0.328799136667
"382","AS",7,24,2,2,2,1,0.482557953748,2,0.528796980641,2,0.65752088745
"383","AS",7,25,2,1,1,0,0.152442487082,1,0.364845557415,1,0.164049599345
"384","AS",7,26,1,2,1,1,0.28248272389,2,0.434686508253,2,0.434731168762
"385","AS",7,27,2,1,2,1,0.176062891237,2,0.341261728677,2,0.164025344069
"386","AS",7,28,1,2,2,0,0.151868060537,2,0.470654388107,2,0.176470995887
"387","AS",7,29,2,1,2,1,0.164317562399,2,0.458892119075,2,0.175761432802
"388","AS",7,30,1,2,1,1,0.387678627598,2,0.506035521274,2,0.434642232748
"389","AS",7,31,2,2,2,1,0.199561634005,2,0.376465759828,2,0.187653448312
"390","AS",7,32,2,2,2,1,0.493658400237,2,0.658876487897,1,0.622855092433
"391","AS",7,33,2,2,1,0,0.188431157173,1,1.52873422493,1,0.187703113877
"392","AS",7,34,1,1,1,1,0.223170488028,1,0.187668078478,1,0.211679647089
"393","AS",7,35,1,1,1,1,0.42307939599,1,0.576524049492,2,0.352257838978
"394","AS",7,36,1,1,1,1,0.234207793797,2,0.48237122662,2,0.223555107411
"395","AS",7,37,2,2,1,0,0.176087916521,1,0.423583751737,1,0.163990693673
"396","AS",7,38,1,2,1,1,0.164242101539,1,0.364811292025,1,0.163428202265
"397","AS",7,39,2,2,2,1,0.317215124666,1,1.18824828009,1,0.258142361532
"398","AS",7,40,1,2,1,1,0.35179544871,2,0.858899357158,1,0.411794147394
"399","AS",7,41,2,1,2,1,0.481903061285,2,0.658861472727,2,0.445736519167
"400","AS",7,42,2,2,2,1,0.341349124674,2,0.717063355936,1,0.292816241641
"401","AS",7,43,1,1,1,1,0.470161582492,2,0.517718479402,2,0.599307454108
"402","AS",7,44,2,2,2,1,0.49366302029,2,0.54126804275,2,0.316345399756
"403","AS",7,45,2,2,2,1,0.329644221296,2,0.775860840934,2,0.305223393021
"404","AS",7,46,1,2,1,1,0.27013871323,2,0.32946634927,2,0.258199727186
"405","AS",7,47,1,1,1,1,0.304770242857,2,0.494184701234,1,0.247063860293
"406","AS",7,48,2,2,1,0,0.187770874649,1,0.43538567622,1,0.175832273609
"407","AS",7,49,1,2,1,1,0.304781792988,2,0.447099819703,2,0.447107134786
"409","AS",8,0,1,1,1,1,0.388329670016,1,1.02288543078,1,0.316658023318
"410","AS",8,1,1,1,1,1,0.363535002482,2,0.600098638124,2,0.328806066746
"411","AS",8,2,2,2,1,0,0.269423375079,2,0.388318889894,2,0.282392632864
"412","AS",8,3,1,2,2,0,0.293210486134,2,0.670361168765,1,1.01164638271
"413","AS",8,4,2,2,2,1,0.304736747476,2,0.506012036007,2,0.29345765895
"414","AS",8,5,1,2,1,1,0.305455550666,2,0.541210292091,2,0.305270363556
"415","AS",8,6,2,2,1,0,0.270148338341,2,0.411876538333,2,0.281078227887
"416","AS",8,7,2,2,2,1,0.128971464629,2,0.364795506845,2,0.15231505063
"417","AS",8,8,2,2,2,1,0.140083076247,2,0.388318119885,2,0.176492941137
"418","AS",8,9,1,2,1,1,0.0694902118403,2,0.447126000001,2,0.176599587352
"419","AS",8,10,1,2,1,1,0.234838045979,1,0.470653233093,1,0.234634763664
"420","AS",8,11,2,1,1,0,0.164287532057,1,0.576566784979,1,0.164043439275
"421","AS",8,12,1,1,1,1,0.187781269768,1,0.588320968917,1,0.198794705266
"422","AS",8,13,1,1,1,1,0.200222686537,1,0.258217437387,1,0.199371056833
"423","AS",8,14,1,1,1,1,0.198843215819,2,0.905943043222,2,0.247140091162
"424","AS",8,15,2,2,2,1,0.305428215355,2,0.929444866025,1,0.269295553623
"425","AS",8,16,1,2,1,1,0.316510181633,2,0.564775640618,2,0.364739296204
"426","AS",8,17,2,2,2,1,0.375994514457,2,0.730488073912,2,0.3169898971
"427","AS",8,18,2,2,2,1,0.1414918073,2,0.552214102479,2,0.175883094188
"428","AS",8,19,2,2,1,0,0.129090045981,2,0.482422432204,2,0.163998008758
"429","AS",8,20,2,2,2,1,0.469453559424,2,0.68246070164,2,0.30598416169
"430","AS",8,21,1,1,2,0,0.15184996533,2,0.576542529702,2,0.164719506978
"431","AS",8,22,2,2,1,0,0.176003600562,1,0.388314269841,1,0.175870389043
"432","AS",8,23,1,1,1,1,0.223010711206,2,0.858915912347,2,0.293521954683
"433","AS",8,24,1,1,1,1,0.27008250259,2,0.564810291014,1,0.222957580601
"434","AS",8,25,1,2,1,1,0.223091562129,2,0.411801462478,1,0.222902524974
"435","AS",8,26,1,2,2,0,0.364243795558,2,0.529480748433,1,0.375850907821
"436","AS",8,27,2,2,2,1,0.43547961729,2,0.553019146653,1,0.364108274013
"437","AS",8,28,2,2,2,1,0.128690411427,2,0.517051266799,2,0.152578008626
"438","AS",8,29,2,2,2,1,0.269365239416,2,0.694278026298,2,0.24708734556
"439","AS",8,30,2,2,2,1,0.14073450367,2,0.435353720856,2,0.164081554709
"440","AS",8,31,1,2,1,1,0.164287147052,2,0.670670327288,2,0.163950268214
"441","AS",8,32,1,2,1,1,0.117201880515,2,0.341275588835,2,0.175896569341
"442","AS",8,33,1,1,1,1,0.128907938906,2,0.517889806355,2,0.175739872556
"443","AS",8,34,2,2,2,1,0.481886891102,2,0.705949819298,1,0.305238023187
"444","AS",8,35,2,1,2,1,0.14082574971,2,0.42363226229,2,0.163268040439
"445","AS",8,36,2,2,2,1,0.176360884632,2,0.293230506361,2,0.164746457286
"446","AS",8,37,2,2,2,1,0.186924250002,2,0.106157259662,2,0.164083479732
"447","AS",8,38,1,2,2,0,0.17533215291,2,0.317745660712,2,0.152972253119
"448","AS",8,39,1,1,1,1,0.176106396732,1,0.329470584317,1,0.152233429701
"449","AS",8,40,1,1,1,1,0.17611409682,2,0.435377976132,2,0.269816079553
"450","AS",8,41,2,2,1,0,0.152429011929,1,0.411843427956,1,0.152318900674
"451","AS",8,42,2,1,1,0,0.152460582289,1,0.353043247927,1,0.175858453907
"452","AS",8,43,2,2,2,1,0.282052673991,2,0.741448378803,2,0.269088806267
"453","AS",8,44,1,2,1,1,0.0701708995966,2,0.364788191761,2,0.175818028446
"454","AS",8,45,2,1,1,0,0.176019000736,1,0.400081158925,1,0.163191039562
"455","AS",8,46,2,1,1,0,0.176010915644,1,0.411833417842,1,0.186911544857
"456","AS",8,47,1,1,1,1,0.175933914767,1,0.353092528489,1,0.164103884964
"457","AS",8,48,1,1,1,1,0.188435007217,1,0.564078782678,1,0.186956590371
"458","AS",8,49,1,1,1,1,0.153180540492,1,0.411870763267,1,0.175191626309
"460","AS",9,0,1,1,1,1,0.316614517822,1,0.941298766099,1,0.305017415673
"461","AS",9,1,2,2,1,0,0.152498697723,1,0.423596841886,1,0.140580886919
"462","AS",9,2,1,2,1,1,0.199541613777,2,0.647097278674,2,0.234689049282
"463","AS",9,3,1,2,1,1,0.152453267206,2,0.411891938508,2,0.164138150354
"464","AS",9,4,1,2,1,1,0.105345285409,2,0.306036907291,2,0.140942791043
"465","AS",9,5,2,2,1,0,0.128983014762,2,0.494193556336,2,0.152332375827
"466","AS",9,6,2,1,2,1,0.164250571635,2,0.505955825367,2,0.152345465976
"467","AS",9,7,2,1,2,1,0.187750084412,2,0.494220121639,1,0.175848058789
"468","AS",9,8,2,2,2,1,0.140707553363,2,0.317672509878,2,0.175244756914
"469","AS",9,9,1,2,1,1,0.317193179417,2,0.811826025758,2,0.42289690391
"470","AS",9,10,1,2,1,1,0.434839739999,2,0.800054516621,2,0.410511697781
"471","AS",9,11,2,1,2,1,0.152492922657,2,0.423600306925,2,0.152325830752
"472","AS",9,12,2,2,2,1,0.16422901139,2,0.482399716945,2,0.164126985227
"473","AS",9,13,2,2,2,1,0.152511787872,2,0.376535830625,2,0.175824188517
"474","AS",9,14,1,2,1,1,0.0935899464575,2,0.458968734949,2,0.152624209153
"475","AS",9,15,1,2,1,1,0.506064011599,2,0.905312406035,2,0.305195287699
"476","AS",9,16,1,2,1,1,0.211967245367,2,0.517050881795,2,0.175202791436
"477","AS",9,17,2,1,1,0,0.152380116371,1,0.34124709851,1,0.152449417161
"478","AS",9,18,1,1,1,1,0.198922526723,1,0.0118388849041,1,0.176442505563
"479","AS",9,19,2,1,2,1,0.152480602516,1,0.647163884432,1,0.17513118062
"480","AS",9,20,2,1,1,0,0.152455192228,1,0.35305133302,1,0.175264392138
"481","AS",9,21,1,1,1,1,0.223076546957,2,0.988290091565,2,0.258165461795
"482","AS",9,22,2,2,1,0,0.211191461526,2,0.565093269238,2,0.187729679179
"483","AS",9,23,2,2,1,0,0.540044113803,2,0.682417581148,1,0.305927951049
"484","AS",9,24,2,2,2,1,0.16360068423,2,0.788974475365,2,0.141155698469
"485","AS",9,25,2,2,1,0,0.200216911471,2,0.375900573387,2,0.269272838364
"486","AS",9,26,1,2,1,1,0.223138532663,2,0.623588910796,1,0.211088280351
"487","AS",9,27,1,2,1,1,0.528963302538,2,1.15295723795,2,0.446220469682
"488","AS",9,28,1,2,1,1,0.387085335838,2,0.55302145668,1,0.176499101207
"489","AS",9,29,1,2,1,1,0.245934642426,2,0.294219582632,1,0.188232494909
"490","AS",9,30,2,2,2,1,0.223036506501,2,1.00003927045,2,0.199369131811
"491","AS",9,31,1,2,1,1,0.187642668188,1,0.505965450476,1,0.176122951922
"492","AS",9,32,1,1,1,1,0.258282888134,2,0.811839115906,2,0.646486276712
"493","AS",9,33,1,1,1,1,0.234853446154,2,0.505946970266,2,0.234667489036
"494","AS",9,34,2,1,2,1,0.152569923534,2,0.282484263907,2,0.163946033165
"495","AS",9,35,2,2,2,1,0.128924494095,2,0.353036702853,2,0.152455577231
"496","AS",9,36,1,2,1,1,0.105424981318,2,0.235420557618,2,0.164072699608
"497","AS",9,37,2,2,2,1,0.152489072612,2,0.65822467547,2,0.15295223289
"498","AS",9,38,1,2,1,1,0.105421131274,2,0.200097560112,2,0.140572416823
"499","AS",9,39,2,1,1,0,0.140742203757,2,0.517661498753,2,0.152335840867
"500","AS",9,40,1,2,1,1,0.151904250949,2,1.01176034401,2,0.152286175301
"501","AS",9,41,2,1,2,1,0.15307774432,2,0.12890832391,2,0.187646903237
"502","AS",9,42,1,2,1,1,0.152435557004,2,0.482495198033,2,0.140491180898
"503","AS",9,43,2,1,2,1,0.176724328773,2,0.611184454447,2,0.164148930477
"504","AS",9,44,2,2,2,1,0.176681978291,2,0.540590820032,1,0.198734644581
"505","AS",9,45,1,1,1,1,0.352603572917,2,0.483352602802,2,0.316870160736
"506","AS",9,46,2,1,2,1,0.258380294244,2,0.482444762459,2,0.246420132958
"507","AS",9,47,1,2,1,1,0.129713368084,2,0.340607991228,2,0.139848223571
"508","AS",9,48,1,1,1,1,0.1883895767,1,0.011223262889,1,0.187632658074
"509","AS",9,49,2,1,1,0,0.340747362817,1,0.105217078948,1,0.917640246511
"511","AS",10,0,2,1,1,0,0.199983983817,1,0.717052575814,1,0.199160844438
"512","AS",10,1,2,1,1,0,0.176669658151,1,0.340560250685,1,0.199464227895
"513","AS",10,2,1,1,1,1,0.304771782875,2,0.376555850854,1,0.270073647489
"514","AS",10,3,2,1,2,1,0.164272131881,2,0.576541759694,2,0.175849983811
"515","AS",10,4,1,2,2,0,0.270176058656,1,0.29416760704,2,0.257512109351
"516","AS",10,5,2,2,2,1,0.19950773339,2,0.588285548513,2,0.198734644582
"517","AS",10,6,1,2,1,1,0.151857665418,2,0.223615168095,2,0.1765160414
"518","AS",10,7,2,2,2,1,0.164283682013,2,0.0706794903926,2,0.163469782738
"519","AS",10,8,1,2,1,1,0.140719103494,2,0.882374614659,2,0.223048826641
"520","AS",10,9,1,1,1,1,0.31723129485,2,0.564789885781,2,0.269953526121
"521","AS",10,10,2,2,2,1,0.164403033373,2,0.37642648938,2,0.18762880803
"522","AS",10,11,2,2,2,1,0.176020925759,2,0.741260881668,2,0.269282463473
"523","AS",10,12,1,2,1,1,0.117174545204,2,0.482454387567,2,0.269995491599
"524","AS",10,13,1,2,1,1,0.55163852092,2,0.411927358912,2,0.305288458762
"525","AS",10,14,2,2,2,1,0.481248553828,2,0.54124263246,2,0.375828962571
"526","AS",10,15,1,2,1,1,0.976056962169,2,0.376548920775,2,0.352211253447
"527","AS",10,16,1,2,1,1,0.45900916041,2,0.575908042472,2,0.446377936476
"528","AS",10,17,2,2,2,1,0.528997952932,2,0.623602000945,2,0.458160995745
"529","AS",10,18,1,2,1,1,0.505405654098,2,0.505958520397,2,0.411122699743
"530","AS",10,19,2,2,2,1,0.164377238078,2,0.458909059269,2,0.163912922788
"531","AS",10,20,2,2,2,1,0.17693993123,2,0.411052628944,2,0.163889052516
"532","AS",10,21,2,2,2,1,0.164120440153,2,0.400167399907,2,0.175843053731
"533","AS",10,22,1,2,1,1,0.140801494433,2,0.435370661049,2,0.187510996688
"534","AS",10,23,2,2,2,1,0.151720988861,2,0.43549886751,2,0.152918352504
"535","AS",10,24,1,2,1,1,0.117220360726,2,0.329484059471,2,0.12872660184
"536","AS",10,25,1,2,1,1,0.234908886787,2,0.447064014294,2,0.29342608859
"537","AS",10,26,1,2,1,1,0.10544538655,2,0.411171210296,2,0.188343761178
"538","AS",10,27,2,2,2,1,0.164359142872,2,0.423489425662,2,0.175817258438
"539","AS",10,28,1,2,2,0,0.164242101539,2,0.294217272606,2,0.199363356745
"540","AS",10,29,2,2,1,0,0.175933914767,1,0.353017837639,1,0.16413430031
"541","AS",10,30,1,1,1,1,0.176689293374,1,0.0112683084026,1,0.187554887188
"542","AS",10,31,2,1,1,0,0.187719284061,1,0.0942440689114,1,0.175802628271
"543","AS",10,32,1,1,1,1,0.399553702914,1,0.49417199609,1,0.446396416687
"544","AS",10,33,1,1,1,1,0.57601314867,2,0.929470661318,2,0.43460719735
"545","AS",10,34,2,2,2,1,0.175879244144,2,0.411968554382,2,0.175883864197
"546","AS",10,35,2,2,2,1,0.176031320877,2,0.294842519731,2,0.175824573521
"547","AS",10,36,1,2,2,0,0.176012455662,2,0.434689203284,2,0.175626296262
"548","AS",10,37,2,2,2,1,0.176012455662,2,0.270680799408,2,0.187780499758
"549","AS",10,38,1,2,1,1,0.199514278465,1,0.694194480347,1,0.175833813626
"550","AS",10,39,2,1,1,0,0.105472721862,2,0.517745429709,2,0.187639203149
"551","AS",10,40,1,2,1,1,0.44729617194,2,0.434703063442,2,0.446373316424
"552","AS",10,41,1,1,1,1,0.211288867637,2,0.48242743726,2,0.22223608238
"553","AS",10,42,2,2,1,0,0.116608203751,2,0.905898767716,2,0.141175718697
"554","AS",10,43,1,2,1,1,0.623044899597,2,0.388323894951,2,0.434637612696
"555","AS",10,44,1,2,1,1,0.364323876471,2,0.470503851391,2,0.352319824685
"556","AS",10,45,2,2,2,1,0.176037865951,2,0.847082802508,2,0.175154665888
"557","AS",10,46,2,2,1,0,0.281880962033,2,0.376598201336,2,0.269958146173
"558","AS",10,47,2,2,1,0,0.187028586191,1,0.541326178412,1,0.164746457286
"559","AS",10,48,2,1,1,0,0.552458580265,2,0.517672278876,1,0.387650522278
"560","AS",10,49,1,1,1,1,0.176107551745,2,0.411814937631,2,0.128730451883
"562","AS",11,0,2,1,1,0,0.176484856045,1,0.411199315617,1,0.198543297401
"563","AS",11,1,1,1,1,1,1.2112418971,1,0.529448408065,2,0.599342104503
"564","AS",11,2,2,2,2,1,0.411989344619,2,0.517059351891,1,0.305253423363
"565","AS",11,3,1,1,1,1,0.364251495645,2,1.57647861897,2,0.364083248729
"566","AS",11,4,2,2,2,1,0.50546648479,2,0.564758700426,2,0.458003143946
"567","AS",11,5,1,2,1,1,0.317213584649,2,0.435364885982,2,0.317019157434
"568","AS",11,6,1,2,1,1,0.434677268147,2,0.411977794487,2,0.340525215284
"569","AS",11,7,2,2,2,1,0.481890741145,2,0.470662088194,2,0.398691293088
"570","AS",11,8,1,2,1,1,0.305413200183,2,0.494170841077,2,0.293486919283
"571","AS",11,9,2,2,2,1,0.187854420601,2,0.529474588363,2,0.199515048474
"572","AS",11,10,2,2,1,0,0.340645336654,2,0.776615834538,1,0.516981581005
"573","AS",11,11,1,2,1,1,0.234136567986,2,0.811840655924,2,0.211813628616
"574","AS",11,12,1,2,1,1,0.176015535697,1,0.329529489989,1,0.175821878491
"575","AS",11,13,2,2,2,1,0.152498697723,2,0.34124709851,2,0.164057684437
"576","AS",11,14,1,2,1,1,0.128947594358,2,0.411205090682,2,0.176536061628
"577","AS",11,15,2,2,2,1,0.517874406179,2,0.540531144352,2,0.69343486669
"578","AS",11,16,2,2,2,1,0.670111685923,2,0.870605800553,2,0.317023007477
"579","AS",11,17,2,2,1,0,0.17601399568,1,0.258908135258,1,0.17581571842
"580","AS",11,18,1,1,1,1,0.152483297547,2,0.411857673118,2,0.222243012459
"581","AS",11,19,1,1,1,1,0.105369540685,2,0.364849407459,2,0.15157353218
"582","AS",11,20,2,2,1,0,0.164185505893,1,0.588357544334,1,0.175905424442
"583","AS",11,21,2,2,1,0,0.176639627808,1,0.340638791579,1,0.17584382374
"584","AS",11,22,2,1,1,0,0.176037865952,1,0.176592657273,1,0.175837278666
"585","AS",11,23,1,1,1,1,0.176661958063,1,0.011250213196,1,0.175896184337
"586","AS",11,24,1,1,1,1,0.0706964305855,2,0.399535992713,2,0.222895594896
"587","AS",11,25,2,2,1,0,0.163542933572,1,0.341326409414,1,0.176505646282
"588","AS",11,26,2,1,1,0,0.129077340836,2,1.29431737375,1,0.363662823937
"589","AS",11,27,1,1,1,1,0.175310977668,1,0.388294249613,1,0.164741452229
"590","AS",11,28,1,2,1,1,0.0708789226646,2,0.258243232682,2,0.152262690033
"591","AS",11,29,1,2,1,1,0.117190330384,2,1.64703298294,1,0.387596621663
"592","AS",11,30,1,2,1,1,0.153195940668,2,0.659163316166,1,0.199342181504
"593","AS",11,31,2,1,1,0,0.175977420263,1,0.294139886723,1,0.175240521866
"594","AS",11,32,2,1,1,0,0.188563213677,2,1.45819988119,1,0.222753913281
"595","AS",11,33,1,1,1,1,0.164254806684,1,0.411821097701,1,0.164087329776
"596","AS",11,34,2,1,2,1,0.317227059802,2,0.788289552559,1,0.269886920361
"597","AS",11,35,1,2,1,1,0.176015535697,1,0.352997432406,1,0.175923519648
"598","AS",11,36,1,2,1,1,0.42372004329,2,0.622952883548,2,0.845744527259
"599","AS",11,37,1,2,1,1,0.411301726783,2,0.835329003574,1,0.222887894807
"600","AS",11,38,2,2,1,0,0.164259811741,1,0.458907904255,1,0.187664228433
"601","AS",11,39,2,2,2,1,0.693593873502,2,0.400160854833,2,0.586902227751
"602","AS",11,40,1,1,1,1,0.553141578048,2,0.634684737232,1,0.445736134164
"603","AS",11,41,2,2,2,1,0.176661573058,2,0.434710378525,2,0.187619182921
"604","AS",11,42,1,2,2,0,0.176016305706,2,0.811100292488,2,0.164701411773
"605","AS",11,43,2,2,2,1,0.152464047328,2,0.305994171804,2,0.164069234569
"606","AS",11,44,1,2,1,1,0.411294796704,1,0.952962859012,2,0.657378050823
"607","AS",11,45,1,2,1,1,0.0936954376602,2,0.447176435576,2,0.128757787195
"608","AS",11,46,1,2,1,1,0.270148338341,2,1.05886717079,2,0.269995876603
"609","AS",11,47,2,1,1,0,0.434862840262,2,0.764729979098,2,0.434598727253
"610","AS",11,48,2,1,1,0,0.140806884495,1,0.376573561056,1,0.163940643104
"611","AS",11,49,2,2,2,1,0.16498901005,2,0.435373741084,2,0.15224651985
"613","BG",0,0,1,1,1,1,2.2345222232,1,1.51765123955,1,1.01080600134
"614","BG",0,1,1,2,2,0,2.04287172364,1,1.32945849101,2,3.26148313302
"615","BG",0,2,2,2,1,0,2.96335269022,2,1.48235954065,1,1.28165443819
"616","BG",0,3,2,1,1,0,1.95294632651,1,1.61119455076,2,0.881016558011
"617","BG",0,4,1,1,1,1,2.43530971724,2,1.22351563303,1,1.46924542024
"618","BG",0,5,1,2,2,0,2.39938814632,1,2.14108517402,1,0.72835767799
"619","BG",0,6,2,2,2,1,0.917025525603,2,0.811258615984,2,1.30583289988
"620","BG",0,7,1,2,1,1,2.69341903084,2,1.28241136265,1,1.7633359809
"621","BG",0,8,2,2,2,1,1.11646895898,2,0.705959490297,1,0.482368010817
"622","BG",0,9,2,1,2,1,1.99941209377,2,0.941280218745,1,1.86911367073
"623","BG",0,10,1,1,1,1,1.14065050072,2,1.32879974343,1,0.387601531253
"624","BG",0,11,1,1,1,1,3.64572316508,2,1.24710041338,1,0.881603309215
"625","BG",0,12,2,2,1,0,3.15166094097,2,4.47035231638,1,0.376384342058
"626","BG",0,13,1,2,1,1,2.8234876045,2,1.52884224824,2,2.90502523146
"627","BG",0,14,2,1,1,0,1.16404893751,1,0.953093399319,2,0.846385531733
"628","BG",0,15,2,1,2,1,2.58402150189,1,1.23529801301,2,2.20281609777
"629","BG",0,16,1,1,1,1,1.05809221927,1,1.83540011696,2,1.08168084969
"630","BG",0,17,2,2,2,1,1.36511209682,2,1.04615160126,2,0.881659520288
"631","BG",0,18,2,2,2,1,0.799510116645,2,0.681778718565,1,0.423515017019
"632","BG",0,19,1,2,1,1,0.658439957911,2,0.529482900476,2,1.31684911523
"633","BG",0,20,1,1,1,1,1.58773990289,2,0.752930387207,2,0.90447813601
"634","BG",0,21,2,1,2,1,0.965135659266,2,1.11676695466,1,0.340509357027
"635","BG",0,22,1,1,1,1,1.01057230188,2,1.52939627382,1,0.882420679824
"636","BG",0,23,1,2,2,0,0.84659805579,2,0.58833358423,1,1.84563245735
"637","BG",0,24,2,2,2,1,0.952388835865,2,0.6353914928,2,0.504582935011
"638","BG",0,25,2,2,2,1,1.28119781947,2,0.729476894361,2,0.388202527729
"639","BG",0,26,2,1,2,1,1.08183331261,2,0.835363541268,2,0.834588906477
"640","BG",0,27,1,1,1,1,1.35239414897,1,0.622959605415,2,0.423515017021
"641","BG",0,28,1,1,1,1,2.2347262771,1,1.89414184364,1,4.54003017688
"642","BG",0,29,2,1,1,0,1.15176643298,2,1.54119058903,1,0.317011203329
"643","BG",0,30,2,2,1,0,1.2700445415,1,0.553035725217,2,2.58747925292
"644","BG",0,31,1,2,2,0,1.47004161544,1,0.305983052747,2,0.517002502162
"645","BG",0,32,1,2,1,1,1.29360352636,2,1.09416471307,1,4.04613042586
"646","BG",0,33,2,1,1,0,1.1883633068,1,0.83469709354,2,4.18677284143
"647","BG",0,34,1,1,1,1,2.16421372066,1,1.15296996596,2,3.09311672306
"648","BG",0,35,2,1,2,1,1.17600534082,2,0.718312066168,1,0.411160131101
"649","BG",0,36,1,2,1,1,0.870126625068,2,0.753017783874,1,1.17572043538
"650","BG",0,37,2,2,2,1,1.82295513933,2,1.01175773951,2,0.222240103674
"651","BG",0,38,2,2,1,0,1.27004608153,2,1.24706576272,1,0.669928962294
"652","BG",0,39,1,2,1,1,0.740027635828,1,0.753014703816,2,1.11757816515
"653","BG",0,40,2,1,1,0,1.31707049446,1,0.717702599532,2,0.434954355453
"654","BG",0,41,2,1,2,1,1.3288975353,1,1.31766610083,2,1.26920484047
"655","BG",0,42,1,1,1,1,1.41065153639,1,1.00003080059,2,3.92855418574
"656","BG",0,43,1,1,2,0,0.846557245011,2,1.16474156574,1,0.669949367682
"657","BG",0,44,1,2,2,0,2.10467695381,1,2.21165856162,2,1.54044713984
"658","BG",0,45,1,2,1,1,0.858333849885,2,0.741240793992,2,0.692484232986
"659","BG",0,46,2,2,2,1,0.776673790586,2,0.787463621617,2,1.12868023715
"660","BG",0,47,2,2,2,1,2.71702229154,2,0.764747417852,1,0.564024220042
"661","BG",0,48,2,2,1,0,1.65828094987,2,1.25885083776,1,0.269946364626
"662","BG",0,49,1,1,1,1,1.22237485625,2,0.964755272003,1,0.70519448069
"664","BG",1,0,2,1,2,1,2.23512937979,2,1.21116729224,1,0.293272805044
"665","BG",1,1,2,1,2,1,1.85767086722,2,2.0234773633,1,1.35279224657
"666","BG",1,2,1,1,1,1,0.717147033924,2,1.36472169936,2,0.575792354755
"667","BG",1,3,1,1,1,1,1.57593557749,2,1.67058963491,1,3.53927517746
"668","BG",1,4,1,1,1,1,1.23483138411,2,1.3529458645,2,0.78749981231
"669","BG",1,5,2,2,2,1,1.25832183766,2,0.965378213898,2,0.657604876966
"670","BG",1,6,1,2,1,1,1.41118977667,2,0.964749111885,2,0.610523097937
"671","BG",1,7,2,2,2,1,0.564934377422,2,0.646451213986,2,0.658144272265
"672","BG",1,8,2,2,2,1,1.42300449727,2,1.0235508997,2,0.516870059635
"673","BG",1,9,1,2,1,1,1.35244612496,2,0.588285458312,1,0.598653321285
"674","BG",1,10,2,1,2,1,1.11711230626,2,0.788333353226,1,3.05795554166
"675","BG",1,11,2,1,2,1,1.43490507451,2,1.09416856315,1,4.97529792831
"676","BG",1,12,1,1,1,1,1.10541693793,2,0.752958107734,1,1.38646383453
"677","BG",1,13,2,1,1,0,1.95235880529,1,0.646453139023,2,0.599319384004
"678","BG",1,14,1,1,1,1,0.975962065995,2,1.67056383942,1,1.16400735672
"679","BG",1,15,1,2,1,1,0.740702938723,2,0.447117507711,2,1.21107797053
"680","BG",1,16,1,2,1,1,1.37590115783,1,0.894194974653,2,1.26989053856
"681","BG",1,17,2,2,1,0,1.10599868404,1,3.69331815891,2,3.37560508718
"682","BG",1,18,2,2,2,1,1.17507131299,2,1.68297185635,1,0.647230083858
"683","BG",1,19,1,2,1,1,0.823015970489,2,0.835372781443,2,0.575816995226
"684","BG",1,20,1,2,1,1,0.681284369126,2,0.564787304613,2,1.05872825142
"685","BG",1,21,1,1,1,1,0.693638485027,2,1.20004558487,1,0.469926113239
"686","BG",1,22,2,1,2,1,1.39955023441,2,1.36471630926,1,0.327954652294
"687","BG",1,23,2,1,1,0,0.740660587913,1,2.10581234049,2,0.905235830478
"688","BG",1,24,2,1,2,1,0.787109799861,2,0.670670101445,1,0.493453912502
"689","BG",1,25,1,1,2,0,1.70529881768,1,0.364774830376,2,2.15215144033
"690","BG",1,26,2,2,2,1,1.49358211995,2,0.764766668221,2,0.916933508845
"691","BG",1,27,1,2,1,1,0.929525174282,2,0.599409475724,1,0.46929085111
"692","BG",1,28,2,2,2,1,1.11717506246,2,0.553002999592,2,2.11683317593
"693","BG",1,29,1,2,1,1,0.717132018635,2,0.541230629799,2,0.375846486788
"694","BG",1,30,2,2,1,0,1.08185833809,2,0.81182188174,1,0.493431967085
"695","BG",1,31,1,1,1,1,0.50547730709,2,1.12942830643,1,0.916896163133
"696","BG",1,32,2,1,1,0,2.37653911502,1,0.775845254764,2,0.764041699376
"697","BG",1,33,2,1,2,1,0.91718722869,2,1.12936978532,2,0.752277029729
"698","BG",1,34,2,1,2,1,0.634775866045,2,0.906007000203,1,0.281684853771
"699","BG",1,35,1,1,1,1,0.458983049282,2,0.52883955319,1,0.846400932027
"700","BG",1,36,1,1,1,1,1.04647192738,1,0.364880707397,2,1.24633963886
"701","BG",1,37,1,2,1,1,0.517161895206,2,1.15298960134,1,3.51676726267
"702","BG",1,38,1,2,1,1,0.528294767788,2,1.05882411825,1,1.15292107003
"703","BG",1,39,2,2,2,1,2.10533916645,1,0.600069763332,1,0.905179234396
"704","BG",1,40,1,2,1,1,0.976137629348,2,0.941045749269,1,0.364044856437
"705","BG",1,41,1,2,1,1,0.681900765894,2,0.905886492903,2,0.89339415936
"706","BG",1,42,2,1,1,0,1.10534263152,1,0.541273750623,2,2.46978674058
"707","BG",1,43,2,1,1,0,0.964220111784,1,2.59991537538,2,1.46982370128
"708","BG",1,44,2,1,1,0,1.57679914898,1,0.634686544339,2,1.75128525079
"709","BG",1,45,1,1,1,1,0.611699680407,2,0.858456667231,1,0.622882988951
"710","BG",1,46,1,1,1,1,0.505395300524,2,0.622933809922,1,0.399365815889
"711","BG",1,47,1,2,1,1,0.563641137727,2,0.658872321168,1,0.422493977521
"712","BG",1,48,2,2,2,1,0.881857799075,2,0.553039190283,2,1.61033444434
"713","BG",1,49,2,2,2,1,0.787760077277,2,0.729484979516,2,1.23454763369
"715","BG",2,0,1,1,1,1,2.28218266828,1,1.29350380945,2,1.23426311325
"716","BG",2,1,2,1,2,1,0.963514393308,2,0.905924223622,1,0.764087130245
"717","BG",2,2,1,1,2,0,2.38766929254,1,0.717716459796,2,1.28157666671
"718","BG",2,3,1,1,1,1,0.693620774689,2,1.88232057791,1,0.411095449868
"719","BG",2,4,2,1,2,1,0.75245721317,2,0.952972892017,2,0.599190791549
"720","BG",2,5,2,2,2,1,0.576626665686,2,0.564124706962,2,0.681726742572
"721","BG",2,6,1,2,1,1,0.528280522516,2,0.670646615998,2,1.03522547763
"722","BG",2,7,2,2,2,1,0.681867270254,2,0.589226416279,1,0.422929035831
"723","BG",2,8,1,2,1,1,1.10529104053,2,0.576601255201,2,0.881369609753
"724","BG",2,9,2,2,2,1,2.25824252614,2,0.564742643761,1,0.234668525994
"725","BG",2,10,2,1,2,1,1.305996528,2,1.246452061,2,1.74045268395
"726","BG",2,11,2,1,2,1,0.858322299664,2,0.670647001005,1,0.387896061875
"727","BG",2,12,1,1,1,1,0.587776093585,2,0.564112771732,2,0.82282423683
"728","BG",2,13,2,1,2,1,1.24687941916,2,1.18788358764,1,1.88160985434
"729","BG",2,14,2,1,1,0,1.08187104333,1,0.423620509033,2,0.516938205936
"730","BG",2,15,1,2,1,1,1.71778152604,2,0.3641214729,1,0.587528533857
"731","BG",2,16,1,2,1,1,0.669300245288,2,0.658906201814,2,1.21197311263
"732","BG",2,17,1,2,1,1,0.928859881578,2,0.552413168329,1,0.423498461701
"733","BG",2,18,1,2,1,1,0.800063372209,2,0.411276788331,1,1.34048279152
"734","BG",2,19,2,2,2,1,0.952445816954,2,0.4236501546,2,0.787509437494
"735","BG",2,20,2,1,2,1,1.40017587136,1,0.71706618238,2,0.963299174198
"736","BG",2,21,1,1,1,1,1.42299256204,2,1.58822308712,1,0.928723973984
"737","BG",2,22,1,1,1,1,1.17596684009,2,0.964716771266,2,1.03459907067
"738","BG",2,23,2,1,2,1,1.30536896602,2,0.964729476509,1,0.775819074264
"739","BG",2,24,2,1,2,1,0.881924405347,2,0.599379445151,2,0.658746038756
"740","BG",2,25,1,2,1,1,0.892987976606,2,0.647108036528,1,1.30586986059
"741","BG",2,26,2,2,2,1,0.917830960983,2,0.328832854064,2,0.834582746356
"742","BG",2,27,1,2,1,1,0.646549775869,2,0.564805014952,2,0.599327469159
"743","BG",2,28,1,2,1,1,1.02290023728,2,0.435511461092,1,1.29270376418
"744","BG",2,29,2,2,2,1,0.58774760304,2,0.411863154528,2,1.30517569233
"745","BG",2,30,1,1,1,1,0.599500722466,2,0.823585011356,1,0.611190315678
"746","BG",2,31,2,1,2,1,1.17657245665,2,1.11703838485,2,1.74045499399
"747","BG",2,32,1,1,1,1,0.575976773276,2,0.506009772256,1,0.680972128162
"748","BG",2,33,2,1,2,1,1.34060021876,1,0.411920135615,2,1.55221527455
"749","BG",2,34,2,1,2,1,1.63539226282,1,2.17576086115,1,2.25800151154
"750","BG",2,35,2,2,2,1,1.59943411619,2,2.04706599373,1,0.705202180834
"751","BG",2,36,2,2,2,1,0.529591472548,2,0.681739447815,1,0.846429037563
"752","BG",2,37,1,2,1,1,0.587728352673,2,0.694186350489,2,0.928086401809
"753","BG",2,38,1,2,1,1,0.682537953062,2,0.587636335917,1,0.611087518717
"754","BG",2,39,1,2,1,1,1.08182330241,1,0.858894035582,2,0.411111620177
"755","BG",2,40,1,1,1,1,1.12881152466,1,1.61186523357,2,1.45746727534
"756","BG",2,41,1,1,1,1,0.752428337619,2,0.800105723018,2,1.03456981011
"757","BG",2,42,2,1,1,0,1.4589734241,1,3.34037229441,2,1.01126647013
"758","BG",2,43,2,1,2,1,0.788416129806,1,2.31753288829,2,0.928701643557
"759","BG",2,44,2,1,2,1,0.588396340429,2,0.540556866932,2,0.493497418332
"760","BG",2,45,1,2,1,1,0.681869580299,2,0.670664711342,2,0.763384876835
"761","BG",2,46,1,2,2,0,2.63466421391,1,0.788327578115,2,0.646375367538
"762","BG",2,47,2,2,2,1,0.78774660202,2,0.59939099537,2,0.482378406015
"763","BG",2,48,2,2,2,1,0.622433300363,2,0.505893885043,1,0.423503466798
"764","BG",2,49,1,2,1,1,1.65893931245,2,0.422964841513,2,1.58746654767
"766","BG",3,0,2,1,2,1,1.61028208334,1,0.470526724708,2,0.541125137785
"767","BG",3,1,2,1,2,1,0.681378695926,2,0.493760378355,1,0.553206668481
"768","BG",3,2,1,1,2,0,2.63441665419,1,0.847333419832,2,0.575824695372
"769","BG",3,3,1,1,1,1,0.964317518643,2,0.51759464347,2,0.422865509618
"770","BG",3,4,2,1,2,1,2.17586211809,2,0.800034881666,2,0.587610925431
"771","BG",3,5,1,2,1,1,0.917114847309,2,0.952321459577,2,0.447135603054
"772","BG",3,6,1,2,1,1,0.869407046328,2,0.364763665162,1,1.24699184131
"773","BG",3,7,1,2,1,1,0.740023400745,2,1.07062266854,1,0.36406333679
"774","BG",3,8,2,2,2,1,0.517811402608,2,0.387676222679,2,0.599346719526
"775","BG",3,9,2,2,2,1,0.692950861896,2,0.670821024329,1,0.317496312591
"776","BG",3,10,2,1,2,1,1.22368003117,1,2.18753361596,1,0.528750616493
"777","BG",3,11,2,1,2,1,0.869845954709,2,0.740567031127,2,4.34039577986
"778","BG",3,12,1,1,1,1,0.870756112088,2,1.77579905388,1,0.764049784531
"779","BG",3,13,1,1,1,1,1.28112428307,2,0.941235172886,1,1.11760434565
"780","BG",3,14,2,1,2,1,0.481874431392,2,0.764762048133,2,0.493469312796
"781","BG",3,15,1,2,1,1,0.681868810285,2,1.74115493735,1,0.646417333339
"782","BG",3,16,1,2,1,1,0.788382634168,2,0.658232438949,1,0.422224087368
"783","BG",3,17,2,2,2,1,0.834797580459,2,0.752970812979,2,1.22285765547
"784","BG",3,18,2,2,2,1,0.494325569147,2,0.46997693421,2,0.599339789393
"785","BG",3,19,1,2,1,1,0.506178405478,2,0.552363502382,2,0.481480568873
"786","BG",3,20,1,1,1,1,1.2466299344,1,0.270636297801,2,0.987483796003
"787","BG",3,21,1,1,1,1,1.21212057044,1,0.752178467848,2,0.716932584828
"788","BG",3,22,1,1,1,1,0.705386214351,2,0.482429226986,1,0.645765130887
"789","BG",3,23,1,1,1,1,0.657669943208,2,0.32949930179,1,1.10581734558
"790","BG",3,24,2,1,2,1,0.657276465694,2,0.49417811133,2,1.60030962291
"791","BG",3,25,2,2,2,1,0.764248063317,2,0.623590247456,2,1.29279424091
"792","BG",3,26,2,2,2,1,0.599520357842,2,0.58832049398,2,0.716956455284
"793","BG",3,27,2,2,2,1,0.399633010993,2,0.482429611993,2,0.411069269367
"794","BG",3,28,1,2,1,1,0.693580348918,2,0.576598175141,2,0.469991949496
"795","BG",3,29,2,1,2,1,1.26993596943,1,1.08248282001,2,0.598678346763
"796","BG",3,30,2,1,2,1,0.458389752952,2,0.517698595455,2,1.52865051458
"797","BG",3,31,1,1,1,1,0.494312863904,2,0.634728510142,1,0.375783730591
"798","BG",3,32,2,1,2,1,0.623071257547,2,0.752979668147,2,0.64633417175
"799","BG",3,33,1,1,1,1,0.611945700104,2,0.905282801376,1,0.940484023542
"800","BG",3,34,2,1,2,1,0.964234742063,2,0.611812102552,1,0.364064106803
"801","BG",3,35,1,2,1,1,1.25831105745,1,0.588224242141,2,0.352332162782
"802","BG",3,36,1,2,1,1,0.59954230326,2,0.705964110384,2,0.598660251417
"803","BG",3,37,1,2,1,1,0.493742668017,2,0.565398311281,2,0.575693407865
"804","BG",3,38,2,2,1,0,1.07012138897,1,0.470669177428,2,0.375807601045
"805","BG",3,39,2,2,2,1,0.764193392273,2,0.975065383873,2,1.02288252694
"806","BG",3,40,2,2,2,1,0.599509192629,2,0.353119887825,1,0.352219355629
"807","BG",3,41,1,1,2,0,1.32868539625,1,0.741866045932,1,0.799271412088
"808","BG",3,42,1,1,1,1,1.30472523373,1,1.21182141973,2,0.623477825309
"809","BG",3,43,1,1,2,0,2.41118477157,1,0.788375704033,2,0.928713578785
"810","BG",3,44,2,1,1,0,0.987822602472,1,0.682181436254,2,0.987340573269
"811","BG",3,45,1,1,1,1,0.917149882976,2,0.729512315038,2,0.66987544627
"812","BG",3,46,2,2,2,1,1.44635326811,2,0.623539041479,2,1.43457589323
"813","BG",3,47,2,2,2,1,0.52891539964,2,0.564871236216,2,0.505110780092
"814","BG",3,48,1,2,1,1,0.681922326306,2,0.564652167033,2,0.55218177891
"815","BG",3,49,2,2,1,0,2.71693142981,2,0.470705753125,1,0.493577114856
"817","BG",4,0,2,1,2,1,1.12937325038,1,1.09347439489,2,0.610827253748
"818","BG",4,1,2,1,2,1,1.96416313069,1,0.400077694483,2,2.11686205148
"819","BG",4,2,1,1,1,1,0.551674724229,2,1.75289034644,1,2.84703927421
"820","BG",4,3,2,1,2,1,0.775949206751,2,1.03535676514,1,0.446401394036
"821","BG",4,4,1,2,1,1,0.799500106454,2,0.811816106629,1,1.04636451033
"822","BG",4,5,1,2,2,0,1.38771164335,2,0.611807097455,1,1.15160703994
"823","BG",4,6,1,2,1,1,0.693642720107,2,2.94107847489,2,0.55225608533
"824","BG",4,7,2,2,2,1,0.635046526213,2,0.741286609868,2,2.71652717209
"825","BG",4,8,2,1,2,1,1.19942495302,2,1.47071114323,1,0.84626656446
"826","BG",4,9,1,1,1,1,0.481879436487,2,0.952992527393,2,1.63463302832
"827","BG",4,10,1,1,1,1,2.64656556117,1,0.870567073478,2,1.14036752032
"828","BG",4,11,1,1,1,1,1.0230584753,2,0.823573076126,1,1.17571042519
"829","BG",4,12,2,1,2,1,0.600238396552,2,0.599386375283,1,0.611050558009
"830","BG",4,13,2,2,2,1,0.586765834294,2,0.44749827998,2,1.09401186516
"831","BG",4,14,2,2,2,1,0.622447930644,2,0.49418119139,1,0.376422842794
"832","BG",4,15,1,2,1,1,0.529086727911,2,0.494054908979,2,0.364037541296
"833","BG",4,16,1,2,1,1,0.575975233247,2,0.575903236871,2,0.529449404836
"834","BG",4,17,2,2,2,1,0.658385671875,2,0.40002148341,2,0.599300903652
"835","BG",4,18,2,1,2,1,0.881841628765,2,0.54124372005,1,1.95218901705
"836","BG",4,19,1,1,1,1,0.610658620526,2,0.411840824099,1,0.658823810241
"837","BG",4,20,2,1,2,1,0.600182185479,2,1.02290601239,1,2.21095823325
"838","BG",4,21,2,1,2,1,0.634152154134,2,1.4000680693,1,0.529323122426
"839","BG",4,22,1,1,1,1,0.964234742063,2,0.529469810224,2,0.352235910945
"840","BG",4,23,1,2,1,1,0.517177295502,2,0.741228088751,2,0.421990387906
"841","BG",4,24,1,2,1,1,0.47014980251,2,0.423360244064,1,0.364023681032
"842","BG",4,25,2,2,2,1,0.528906929478,2,0.588283918281,1,0.292802326061
"843","BG",4,26,1,2,1,1,0.68186804027,2,0.505924685633,2,0.446411404226
"844","BG",4,27,2,2,2,1,0.916511925796,2,0.341251651202,1,0.38820214272
"845","BG",4,28,2,1,2,1,1.18707430218,1,1.18823586936,2,0.505192016641
"846","BG",4,29,1,1,1,1,0.610640910189,2,0.717720309869,1,0.976424844832
"847","BG",4,30,2,1,2,1,0.694258731872,2,0.893521981801,1,1.1280857858
"848","BG",4,31,2,1,2,1,0.682509077509,2,0.505297508655,2,0.952102775404
"849","BG",4,32,1,1,1,1,0.59952497793,2,1.03533712976,2,2.26922794091
"850","BG",4,33,1,2,1,1,0.693601524321,2,0.752960802787,1,0.728749230466
"851","BG",4,34,1,2,1,1,0.670101830594,2,0.55365173698,2,0.504366945886
"852","BG",4,35,1,2,2,0,1.75238213674,1,0.870638684846,2,1.4345743532
"853","BG",4,36,2,2,2,1,0.846624621297,2,0.681719042424,2,0.552227209779
"854","BG",4,37,1,2,1,1,0.659194957329,2,0.646096237208,2,0.881017328027
"855","BG",4,38,2,1,1,0,1.64639076783,1,1.31767072092,2,0.975864659134
"856","BG",4,39,2,1,2,1,1.08115993475,2,0.494240482521,1,0.552920223012
"857","BG",4,40,2,1,2,1,1.08117533504,2,0.988288076362,2,0.470583705795
"858","BG",4,41,2,1,2,1,0.623046232069,2,0.776563678482,1,0.304429163076
"859","BG",4,42,2,1,2,1,0.469452169189,2,0.505908515323,2,0.505260932958
"860","BG",4,43,2,2,2,1,0.423041842985,2,0.482452327427,2,0.328776257982
"861","BG",4,44,1,2,1,1,0.470180603099,2,0.92942969246,2,0.552238759999
"862","BG",4,45,1,2,1,1,0.48185864609,2,0.435390953791,2,0.434674070102
"863","BG",4,46,1,2,1,1,0.4701440274,2,0.364797930817,2,0.433980286853
"864","BG",4,47,1,2,1,1,0.376053235737,2,0.294180267372,2,0.469889152533
"865","BG",4,48,2,1,2,1,0.787463236611,2,0.470797384876,1,0.575823155343
"866","BG",4,49,1,1,1,1,0.552462449272,2,0.847098950353,2,1.48165728725
"868","BG",5,0,1,1,1,1,1.02347890333,1,1.09340971366,2,1.48122607901
"869","BG",5,1,1,1,1,1,0.728915938651,2,1.07065924424,1,0.564021909999
"870","BG",5,2,2,1,2,1,0.646628702376,2,0.764724317411,1,1.49336690084
"871","BG",5,3,2,1,2,1,1.32960402379,1,0.64645929914,2,0.469921108144
"872","BG",5,4,2,1,2,1,0.634826302008,2,1.21242973135,2,2.56391680299
"873","BG",5,5,2,2,2,1,0.705304592791,2,0.435472575349,1,0.398762894378
"874","BG",5,6,1,2,1,1,0.493046189717,2,0.42359355852,2,1.26985819794
"875","BG",5,7,2,2,2,1,0.457697509735,2,0.411908585394,2,0.74116109747
"876","BG",5,8,1,2,1,1,0.576069560047,2,0.576603565245,2,0.692447657288
"877","BG",5,9,1,2,1,1,1.6464885597,2,0.270665173352,2,0.481669992489
"878","BG",5,10,2,1,2,1,1.07013601925,2,0.741031349993,1,0.351584478505
"879","BG",5,11,2,1,2,1,0.670136866263,2,0.647127671902,1,0.680980983332
"880","BG",5,12,1,1,1,1,0.846608065982,2,0.435343982894,1,1.15221650657
"881","BG",5,13,1,1,1,1,0.916183899531,1,0.388300319595,2,0.741449467978
"882","BG",5,14,1,1,1,1,0.705376204158,1,1.52940397397,2,0.928748229448
"883","BG",5,15,2,2,2,1,0.658332155852,2,0.741231553817,2,5.19896371421
"884","BG",5,16,2,2,2,1,0.704727851778,2,0.505957796264,1,0.305895656076
"885","BG",5,17,1,2,1,1,0.540731275265,2,0.482424991904,2,0.892669960533
"886","BG",5,18,2,2,2,1,0.504754263282,2,0.364776370405,1,0.647083396057
"887","BG",5,19,1,2,1,1,0.599518817811,2,0.423583933334,2,0.481692707923
"888","BG",5,20,1,1,1,1,0.622988480965,2,1.40006036915,1,0.493501653413
"889","BG",5,21,1,1,1,1,0.599537298165,2,0.49418273142,2,0.446421029408
"890","BG",5,22,1,1,1,1,0.858330384819,2,0.317749262422,2,0.622235021578
"891","BG",5,23,2,1,2,1,0.458415548444,2,0.388282994263,2,0.398601961306
"892","BG",5,24,1,1,1,1,0.494322874096,2,1.03465451173,1,0.458292346093
"893","BG",5,25,2,2,2,1,0.669162027649,2,0.447048976401,1,1.5766851868
"894","BG",5,26,2,2,2,1,0.481812060201,2,0.247275976735,2,0.364069881914
"895","BG",5,27,2,2,2,1,0.45835394727,2,0.388316874911,2,0.516982096773
"896","BG",5,28,2,2,2,1,0.504743868085,2,0.294243793585,1,0.329254052105
"897","BG",5,29,1,2,1,1,0.528720200913,2,0.40016547616,1,0.363650993915
"898","BG",5,30,2,1,2,1,0.588369004905,2,0.434776867065,1,0.493475857922
"899","BG",5,31,2,1,2,1,0.71724906087,2,0.400076539461,1,0.458035161182
"900","BG",5,32,2,1,1,0,0.798840588861,1,0.741143387133,2,0.529464420124
"901","BG",5,33,2,1,2,1,0.528943890184,2,0.753036649234,1,0.552244150102
"902","BG",5,34,1,1,1,1,0.493669131612,2,0.952964421855,1,0.587586669966
"903","BG",5,35,2,2,2,1,0.600269967155,2,0.587627865754,1,1.39862005665
"904","BG",5,36,1,2,1,1,0.458336621938,2,0.42360780379,2,0.411116240266
"905","BG",5,37,1,2,1,1,0.352473460482,2,0.317732707106,2,0.269953294757
"906","BG",5,38,1,2,1,1,0.305380901249,2,0.364835661538,2,0.293493414256
"907","BG",5,39,1,2,1,1,1.27007688212,1,0.340619469129,2,0.788062308051
"908","BG",5,40,2,1,2,1,1.37602320516,1,0.65886038594,2,1.49333109516
"909","BG",5,41,1,1,1,1,0.598893180864,2,1.0235505147,1,0.894098337807
"910","BG",5,42,1,1,1,1,1.72817287446,1,0.50599475697,2,0.516971316569
"911","BG",5,43,2,1,2,1,0.48183131057,2,0.4118566094,2,0.763438392856
"912","BG",5,44,2,1,1,0,0.787783947735,1,0.400062294189,2,0.681662446344
"913","BG",5,45,1,2,2,0,1.24648979172,1,0.400125050388,2,0.599303213696
"914","BG",5,46,2,2,2,1,1.64653206553,1,1.0470594486,2,0.692765288353
"915","BG",5,47,1,2,1,1,0.494253572773,2,0.434731051189,2,0.493614075562
"916","BG",5,48,1,2,1,1,1.32820567709,1,0.306008463231,2,0.552278415757
"917","BG",5,49,2,2,2,1,0.670089125353,2,0.40010002491,2,0.74051005004
"919","BG",6,0,1,1,1,1,0.941128910858,1,0.952314914453,2,0.327845695214
"920","BG",6,1,1,1,1,1,0.457787986463,2,0.976554977318,1,0.622729756024
"921","BG",6,2,2,1,2,1,0.528893069213,2,0.705974120576,2,0.928737834251
"922","BG",6,3,1,1,2,0,1.45801591081,1,0.329673710119,2,0.43396334653
"923","BG",6,4,2,1,2,1,0.740717183995,2,0.729451098869,1,1.09342588397
"924","BG",6,5,2,2,2,1,0.504747333151,2,0.694221771164,2,0.669843875668
"925","BG",6,6,1,2,1,1,1.72886203762,1,2.92928184964,2,1.42282469884
"926","BG",6,7,2,2,2,1,0.646564021139,2,0.670022904087,2,1.44642333945
"927","BG",6,8,1,2,1,1,0.835185667871,1,0.481782799641,2,0.987749451077
"928","BG",6,9,2,2,2,1,0.423087273852,2,0.341220850612,2,0.340512822093
"929","BG",6,10,1,1,1,1,1.12956305901,1,0.611192240714,2,0.587545089174
"930","BG",6,11,2,1,2,1,0.43482845805,2,0.588284303289,1,0.328773562931
"931","BG",6,12,2,1,1,0,0.823054086219,1,0.835297320002,2,0.811093832837
"932","BG",6,13,2,1,2,1,0.494306703788,2,0.470035840335,1,0.352292122017
"933","BG",6,14,2,1,2,1,0.328331959499,2,0.447089017165,2,0.494044128773
"934","BG",6,15,1,2,1,1,0.446583117506,2,0.517722080904,2,0.458146043298
"935","BG",6,16,1,2,1,1,0.78775276214,2,0.411823498771,2,0.517054863163
"936","BG",6,17,1,2,2,0,2.45825538539,2,0.847751922822,1,0.305183777484
"937","BG",6,18,1,2,1,1,0.446603907902,2,0.400114270182,2,0.352238991003
"938","BG",6,19,2,2,2,1,0.552452054073,2,0.400091554748,2,0.516998267081
"939","BG",6,20,1,1,1,1,1.09361684761,1,0.600052052994,2,0.43452314722
"940","BG",6,21,1,1,1,1,0.564239054143,2,0.894158398954,2,0.751619052166
"941","BG",6,22,1,1,1,1,0.681840319741,2,1.34125280622,1,0.469956913827
"942","BG",6,23,2,1,2,1,0.482458872551,2,0.964169290814,1,0.399326160134
"943","BG",6,24,2,1,2,1,0.634817061833,2,0.482448477353,1,0.446396773945
"944","BG",6,25,2,2,2,1,0.469227709904,2,0.364804475941,1,0.388460482654
"945","BG",6,26,2,2,2,1,0.435493750752,2,0.446469925344,1,0.422895925198
"946","BG",6,27,2,2,2,1,1.5171037591,1,0.37676087925,2,0.869677321489
"947","BG",6,28,1,2,1,1,0.916163879148,2,1.03564898572,2,0.411770367755
"948","BG",6,29,1,2,1,1,0.987096478606,1,0.482410746634,2,0.64632416156
"949","BG",6,30,1,1,2,0,0.893592823155,1,0.28215610277,2,0.400009163175
"950","BG",6,31,1,1,1,1,0.505330619289,2,0.753728507445,1,0.386960879019
"951","BG",6,32,2,1,1,0,2.49415000579,1,2.44634595298,2,1.41107658451
"952","BG",6,33,2,1,1,0,0.740105407314,1,0.741256579295,2,0.516913565463
"953","BG",6,34,1,1,2,0,0.4583450921,1,0.306001918107,2,0.411111235169
"954","BG",6,35,1,2,1,1,0.564242904218,2,0.599423335989,2,0.423518097077
"955","BG",6,36,2,2,2,1,0.411291803615,2,0.364757505045,2,0.422880139897
"956","BG",6,37,2,2,2,1,0.434257492147,2,0.329324123444,1,0.364735559626
"957","BG",6,38,1,2,1,1,0.681162321795,1,0.564828885408,2,0.575829315461
"958","BG",6,39,2,2,2,1,0.364202324443,2,0.353025561022,2,0.411421166087
"959","BG",6,40,1,1,1,1,0.681861880154,1,0.317742717298,2,0.469946903637
"960","BG",6,41,2,1,2,1,0.528727131044,2,0.647191968132,2,0.563557206126
"961","BG",6,42,2,1,2,1,0.4700235201,2,0.517787917161,1,0.834581976342
"962","BG",6,43,1,1,1,1,0.659011693828,2,1.10525484984,2,1.52862933918
"963","BG",6,44,1,1,1,1,0.669467723486,2,0.811767980709,1,0.564706453069
"964","BG",6,45,2,1,2,1,0.50533023428,2,0.517149189964,1,0.352940089391
"965","BG",6,46,1,2,1,1,0.869473267592,2,0.458878712288,1,0.776398125323
"966","BG",6,47,1,2,1,1,0.364488384905,2,0.257886779349,2,0.540666594028
"967","BG",6,48,2,2,2,1,0.682507922489,1,0.540627323278,2,0.351649929757
"968","BG",6,49,2,2,2,1,1.75175765481,2,1.28235207151,1,0.493194417546
"970","BG",7,0,2,1,2,1,0.893431120068,1,0.799989835807,1,1.03431994034
"971","BG",7,1,2,1,2,1,0.564224808873,2,0.411838514055,1,0.505256697877
"972","BG",7,2,2,1,2,1,0.65835718133,2,1.71759479747,1,0.375146928431
"973","BG",7,3,2,1,2,1,0.493671441656,2,0.93007958487,1,0.622836403061
"974","BG",7,4,1,1,1,1,0.728861267606,1,0.329558207914,2,1.28161170238
"975","BG",7,5,1,2,1,1,1.18702117117,1,2.58823194229,2,0.599982366664
"976","BG",7,6,1,2,1,1,0.517139179772,2,0.846492948782,2,0.482349530464
"977","BG",7,7,1,2,1,1,0.223037453901,2,0.35304635142,2,0.23478287318
"978","BG",7,8,1,2,2,0,0.611291957621,2,0.447161398548,1,0.211075275482
"979","BG",7,9,2,2,1,0,0.870269462795,1,0.882405664537,2,0.481492889106
"980","BG",7,10,1,1,1,1,0.681895760799,1,1.16471500023,2,0.811066112308
"981","BG",7,11,1,1,2,0,0.481882516548,1,0.635359922197,1,1.45803747123
"982","BG",7,12,2,1,1,0,1.02260994174,1,1.01119177871,2,1.22280221441
"983","BG",7,13,1,1,1,1,0.811245525732,1,0.68243361607,2,0.693431351072
"984","BG",7,14,1,1,1,1,0.235048528251,1,0.905935388835,2,0.328638810359
"985","BG",7,15,2,2,2,1,0.634808591671,1,0.905932308777,1,2.48174468392
"986","BG",7,16,2,2,2,1,0.494378315154,2,0.469903782812,2,1.14040486603
"987","BG",7,17,2,2,1,0,0.834796425437,1,0.470669947441,2,0.516992491972
"988","BG",7,18,2,2,2,1,0.752446432965,2,0.388313409845,1,0.305237293507
"989","BG",7,19,1,2,1,1,0.552525205469,2,0.529435544571,1,0.798677345745
"990","BG",7,20,2,2,2,1,0.399522513882,2,0.400104644998,2,0.693490642205
"991","BG",7,21,1,1,1,1,0.481997633744,2,0.599978516591,2,0.728765785783
"992","BG",7,22,1,1,1,1,0.587090780498,2,0.400101949946,1,0.588253117694
"993","BG",7,23,1,1,1,1,0.658327150757,2,0.740584741465,1,0.835120986636
"994","BG",7,24,2,2,1,0,0.810884388837,1,0.77686090416,2,1.50514235069
"995","BG",7,25,2,1,1,0,0.634831307103,1,0.364791000684,2,0.552342711982
"996","BG",7,26,1,1,1,1,0.540710484865,2,0.635396497897,1,1.16329509312
"997","BG",7,27,2,2,2,1,0.645989590172,2,0.530105072357,2,0.764631915647
"998","BG",7,28,1,2,1,1,0.423718300901,2,0.34060329882,2,1.14046916226
"999","BG",7,29,2,2,1,0,0.340706865798,2,0.34061908412,1,2.42271227669
"1000","BG",7,30,2,2,1,0,0.517903804373,1,0.375852261899,2,0.364014440856
"1001","BG",7,31,1,1,2,0,0.557839846953,1,0.335860008247,1,0.999335477311
"1002","BG",7,32,2,1,1,0,0.705982590738,1,0.411248682794,2,0.480995844617
"1003","BG",7,33,1,1,1,1,0.681894990785,2,0.823580776276,1,0.693445211336
"1004","BG",7,34,1,1,1,1,2.22293427193,2,0.858838209517,1,0.952255238313
"1005","BG",7,35,1,1,1,1,0.529019351625,2,0.341293231995,1,0.493318389916
"1006","BG",7,36,2,2,2,1,0.623059322317,2,0.55296988896,1,0.928051751147
"1007","BG",7,37,1,2,1,1,0.434815752807,2,0.400103874983,2,0.528743301353
"1008","BG",7,38,2,2,2,1,0.481909082055,2,0.411854684364,2,0.564020754975
"1009","BG",7,39,2,2,2,1,0.587783408724,2,0.318362579133,2,0.552266480528
"1010","BG",7,40,2,2,1,0,0.823004035261,1,0.741232323831,2,0.317005428218
"1011","BG",7,41,2,1,2,1,0.587798424011,2,0.424268476405,1,0.387534539972
"1012","BG",7,42,2,1,2,1,0.269996800589,2,0.294224543217,2,0.364180764031
"1013","BG",7,43,1,1,1,1,0.482863515279,2,0.35209846332,1,0.704221952119
"1014","BG",7,44,1,1,1,1,0.575999103703,2,0.823593481518,2,2.83445299888
"1015","BG",7,45,1,1,2,0,0.470684577722,1,0.446521516327,2,0.316978092696
"1016","BG",7,46,2,2,2,1,0.317194466828,2,0.352944709479,2,0.30512910644
"1017","BG",7,47,2,2,2,1,0.340788102349,2,0.305167607175,2,1.29268874889
"1018","BG",7,48,1,2,1,1,0.352446509965,2,0.305976892629,2,0.375928878362
"1019","BG",7,49,1,2,1,1,0.351836658321,2,0.705948710091,2,0.400010318197
"1021","BG",8,0,2,1,1,0,0.799315302926,1,1.17651393553,2,1.15195316154
"1022","BG",8,1,1,1,1,1,1.06947534663,2,0.458876017237,2,0.988157558868
"1023","BG",8,2,2,1,2,1,0.50518932159,2,0.364955783831,2,0.611069808378
"1024","BG",8,3,2,1,2,1,0.587132746301,2,0.29416178702,1,0.599948101009
"1025","BG",8,4,1,1,1,1,0.635604786874,2,0.305205337896,2,0.552174078764
"1026","BG",8,5,2,2,2,1,0.728908238503,2,0.587670216562,1,0.376466733633
"1027","BG",8,6,1,2,1,1,0.494273593155,2,0.470032375268,2,0.681043739531
"1028","BG",8,7,1,2,1,1,0.681925791374,1,0.38832265002,2,0.481669607479
"1029","BG",8,8,2,2,2,1,0.823080651724,2,0.388996797894,2,0.598785378806
"1030","BG",8,9,1,2,1,1,0.505360649862,2,0.37658762594,2,0.492837515732
"1031","BG",8,10,2,1,2,1,0.446581962484,2,0.435369393379,1,0.304568920743
"1032","BG",8,11,2,1,1,0,0.434805357607,2,0.400066914277,1,2.42275501251
"1033","BG",8,12,1,1,1,1,1.16423181601,2,0.411860844484,1,0.916804531384
"1034","BG",8,13,1,1,2,0,1.56478422455,1,0.434669065005,2,0.364051401562
"1035","BG",8,14,1,1,1,1,0.611301197796,2,0.317734632143,2,0.775761323162
"1036","BG",8,15,2,2,2,1,0.482145091561,2,0.400069224321,2,0.551972334912
"1037","BG",8,16,1,2,1,1,0.410654616449,2,0.506015547367,2,0.364741719743
"1038","BG",8,17,2,2,1,0,0.775998872699,1,0.588284688296,2,0.622882218937
"1039","BG",8,18,1,2,1,1,0.893676369751,2,0.529467885188,2,0.387530689899
"1040","BG",8,19,2,2,2,1,0.576013733982,2,0.400055364056,1,0.69345175646
"1041","BG",8,20,2,1,2,1,0.658498864037,2,0.364773290345,1,0.952063504654
"1042","BG",8,21,1,1,2,0,0.788344133431,1,0.446513816181,2,0.305256928881
"1043","BG",8,22,2,1,1,0,0.39950980864,1,0.423622819078,2,0.37652371472
"1044","BG",8,23,2,1,2,1,0.528930799934,2,0.494218922109,2,1.58752468378
"1045","BG",8,24,1,1,1,1,0.728887833113,2,0.364742874764,1,0.975811913129
"1046","BG",8,25,1,2,1,1,0.541430063608,2,0.434697555549,2,0.528662064802
"1047","BG",8,26,1,2,1,1,0.340709175842,2,0.364771750315,2,0.328798203402
"1048","BG",8,27,2,2,2,1,0.387765159376,2,0.341281296765,2,0.399301519661
"1049","BG",8,28,2,2,2,1,0.328923715799,2,0.423601258666,2,0.364210024591
"1050","BG",8,29,1,2,1,1,0.447300001193,2,0.43469178044,2,0.422175576443
"1051","BG",8,30,1,1,1,1,0.811269011181,2,1.21177252379,1,0.340501656878
"1052","BG",8,31,2,1,1,0,0.553585900723,1,0.423263607219,2,0.469820621223
"1053","BG",8,32,2,1,2,1,0.376938367639,2,0.305020919373,1,0.481880206502
"1054","BG",8,33,2,1,1,0,0.517171135383,1,0.847106650501,2,0.528725591015
"1055","BG",8,34,1,2,1,1,0.470122081981,2,0.564789999666,2,0.375104577623
"1056","BG",8,35,2,2,1,0,0.764205327499,1,0.741225393698,2,0.505242452604
"1057","BG",8,36,1,2,1,1,0.540011696523,2,0.364826036353,1,0.611735101082
"1058","BG",8,37,1,2,2,0,1.4341658604,1,0.635317186381,2,0.505883104837
"1059","BG",8,38,2,2,2,1,0.43421783639,2,0.470639146855,2,0.341111508524
"1060","BG",8,39,1,1,1,1,0.493662971496,1,0.505921220567,2,0.363386108858
"1061","BG",8,40,2,1,2,1,0.492959948071,2,0.341213535474,1,0.317693821364
"1062","BG",8,41,2,1,1,0,0.434817292837,2,0.34131132734,1,0.858160981583
"1063","BG",8,42,1,1,2,0,0.893602833346,1,0.411242907683,2,0.247040352235
"1064","BG",8,43,1,1,2,0,0.458335466916,1,0.341272826605,1,0.364071806951
"1065","BG",8,44,2,2,2,1,0.564121241896,2,0.329580153333,1,0.363434234778
"1066","BG",8,45,1,2,1,1,0.42303067777,2,0.341324802597,1,0.928730519108
"1067","BG",8,46,2,2,2,1,0.599536913156,2,0.399421256949,1,0.400023408447
"1068","BG",8,47,1,2,1,1,0.411348784706,2,0.211861460495,1,0.775768253296
"1069","BG",8,48,1,2,1,1,0.575979468327,2,0.330447574897,1,0.822952059269
"1070","BG",8,49,2,2,1,0,0.611333153407,1,0.329493141671,2,0.422862814565
"1072","BG",9,0,1,1,1,1,0.881640269921,1,1.03529978405,2,1.35198450114
"1073","BG",9,1,2,1,2,1,0.940678837262,2,0.776538653005,1,0.41096724242
"1074","BG",9,2,1,1,1,1,0.952483547673,2,0.364806785985,2,0.752086066082
"1075","BG",9,3,2,1,2,1,0.551797926582,2,0.353037111243,1,0.552963343835
"1076","BG",9,4,1,1,1,1,0.775375930803,2,0.37654566014,1,0.576411446576
"1077","BG",9,5,1,2,1,1,0.670136481256,2,0.43536323326,2,0.469312026513
"1078","BG",9,6,2,2,2,1,0.293669362616,2,0.37652371472,2,0.305221893212
"1079","BG",9,7,1,2,1,1,0.270132323176,2,0.329501226826,2,0.246435505685
"1080","BG",9,8,2,2,2,1,0.247209370462,2,0.340670675107,2,0.246441665804
"1081","BG",9,9,2,2,2,1,1.68186496021,2,1.50570792649,1,0.422146315883
"1082","BG",9,10,2,1,2,1,0.506063288278,2,0.34060907393,1,0.269919414111
"1083","BG",9,11,1,1,1,1,0.823055241241,2,0.682435541108,2,0.411066574316
"1084","BG",9,12,2,1,2,1,0.587624785696,2,0.364783300536,1,0.657534805627
"1085","BG",9,13,2,1,2,1,0.39881910545,2,0.071338397207,2,0.364051401561
"1086","BG",9,14,1,1,1,1,0.400130825497,2,0.340642184561,2,0.387605381324
"1087","BG",9,15,2,2,2,1,0.281903152942,2,0.24714738428,2,0.269290697106
"1088","BG",9,16,1,2,1,1,0.304744484096,2,0.341259736355,2,0.258940929476
"1089","BG",9,17,2,2,2,1,0.233887346079,2,0.318656339743,2,0.222550804607
"1090","BG",9,18,1,2,1,1,0.304767969545,2,0.317698441451,1,0.317285713571
"1091","BG",9,19,1,2,1,1,0.387750529097,2,0.388316489903,1,1.44223137941
"1092","BG",9,20,2,1,2,1,0.44583812828,2,0.317820488781,1,1.37627345994
"1093","BG",9,21,1,1,1,1,0.411955941299,1,0.552355802234,2,0.445786922302
"1094","BG",9,22,1,1,1,1,0.575989478519,2,0.282458718548,1,0.551630448383
"1095","BG",9,23,2,1,2,1,2.3170412339,2,0.658891571535,1,1.14045722703
"1096","BG",9,24,2,1,2,1,0.506131049571,2,0.317082429689,2,0.716947600115
"1097","BG",9,25,2,2,2,1,0.42251630795,2,0.329502766856,1,0.328610319813
"1098","BG",9,26,1,2,1,1,0.341297082068,2,0.293639717051,2,0.317046238997
"1099","BG",9,27,2,2,2,1,0.270091897404,2,0.282452558431,2,0.258217500665
"1100","BG",9,28,1,2,1,1,0.458419783527,2,0.29417911235,1,0.646513970183
"1101","BG",9,29,1,2,1,1,0.55246668435,2,0.470665327355,2,1.79925216172
"1102","BG",9,30,2,1,2,1,0.481333111054,2,0.317595259481,1,0.470498234165
"1103","BG",9,31,2,1,1,0,1.01192791276,1,0.387632716847,2,0.41106310925
"1104","BG",9,32,1,1,1,1,0.446599287812,2,0.294190662571,2,1.98743798013
"1105","BG",9,33,1,1,1,1,0.540725500152,2,0.364765205191,1,0.364016365893
"1106","BG",9,34,1,1,1,1,0.387746679022,2,0.306003843143,1,0.42286512461
"1107","BG",9,35,2,2,2,1,0.352423794533,2,0.294246103629,2,0.363404204203
"1108","BG",9,36,2,2,2,1,0.41132606927,2,0.0707119902454,2,0.316345525618
"1109","BG",9,37,1,2,1,1,0.44784863667,2,0.387348966429,1,0.786507648363
"1110","BG",9,38,2,2,2,1,0.375980469347,2,0.211919981612,2,0.845368727316
"1111","BG",9,39,1,1,1,1,0.517088743809,2,0.305877560731,1,0.705197175741
"1112","BG",9,40,1,1,2,0,0.564298345276,1,0.376494839169,2,0.269864743068
"1113","BG",9,41,2,2,2,1,0.52891116456,2,0.870635604788,1,0.88103850343
"1114","BG",9,42,1,1,1,1,0.599371745004,2,0.611953015243,2,0.77579943889
"1115","BG",9,43,2,1,2,1,0.505391065442,2,0.376584930889,1,0.305193017661
"1116","BG",9,44,2,1,2,1,0.553113111695,2,0.317088974814,1,2.04564955168
"1117","BG",9,45,2,2,2,1,0.258366498509,2,0.329540497574,2,0.234635030356
"1118","BG",9,46,1,2,1,1,0.39958257503,2,0.564762664144,1,0.305077130448
"1119","BG",9,47,1,2,1,1,0.352516966312,2,0.341275136649,1,0.446410634211
"1120","BG",9,48,1,2,1,1,0.352613988165,2,0.32938726465,2,0.422744232303
"1121","BG",9,49,2,2,2,1,0.364208099554,2,0.482458487544,1,0.434696015522
"1123","BG",10,0,2,1,1,0,0.693422110895,1,0.811826501826,2,0.434354514
"1124","BG",10,1,1,1,1,1,0.481989933598,2,0.823581161281,1,1.08158305783
"1125","BG",10,2,2,1,2,1,0.399520973851,2,0.70579047207,2,0.411139340706
"1126","BG",10,3,2,1,2,1,0.305357800808,2,0.223739322302,2,0.305167222168
"1127","BG",10,4,1,1,1,1,0.611278482362,2,0.388329965161,2,1.1757369907
"1128","BG",10,5,1,2,1,1,0.411294498668,2,0.341281681774,2,0.411109310133
"1129","BG",10,6,2,2,2,1,0.411300273779,2,0.353561491256,2,0.552285730895
"1130","BG",10,7,2,2,2,1,0.340715720968,2,0.388301859624,2,0.281726434567
"1131","BG",10,8,1,2,1,1,0.352603592966,2,0.282299710514,2,0.29348994919
"1132","BG",10,9,1,2,2,0,1.11700219416,1,0.753005078632,2,0.222981242827
"1133","BG",10,10,2,1,2,1,1.04744599598,2,0.881511677464,1,0.281635572832
"1134","BG",10,11,1,1,1,1,0.470177138033,1,0.247157009462,2,0.305161447059
"1135","BG",10,12,2,1,2,1,0.517175370465,2,0.341220080596,1,0.411097374903
"1136","BG",10,13,1,1,1,1,0.446617768166,2,0.45890604781,1,1.03397420374
"1137","BG",10,14,2,1,2,1,2.09354023115,1,0.400061909182,1,0.552272640645
"1138","BG",10,15,2,2,1,0,1.5405915176,1,0.282461798608,2,0.352329467732
"1139","BG",10,16,2,2,2,1,0.505426101112,2,0.365475543755,2,0.692771448472
"1140","BG",10,17,1,2,1,1,0.881083934299,2,0.576553129282,1,0.988249190619
"1141","BG",10,18,1,2,1,1,1.29362701181,1,0.435322807489,2,0.987637413935
"1142","BG",10,19,1,2,2,0,0.576692501943,1,0.387644652074,2,0.752137657068
"1143","BG",10,20,2,2,1,0,1.02301496947,1,0.282446013307,2,0.376050540684
"1144","BG",10,21,2,1,2,1,1.05836210942,1,1.52980130156,2,4.82248543036
"1145","BG",10,22,1,1,1,1,0.823084116792,1,0.799829672747,2,0.752218508611
"1146","BG",10,23,1,1,1,1,0.729772195,1,1.42289900526,2,0.739554076785
"1147","BG",10,24,1,1,2,0,0.599508807622,1,0.364166518761,2,0.835126761745
"1148","BG",10,25,1,2,1,1,0.493027709364,2,0.51774133127,2,0.434591678528
"1149","BG",10,26,1,2,1,1,0.399590660185,2,0.294187197505,2,0.446359043224
"1150","BG",10,27,2,2,2,1,1.66977187929,1,0.469974239159,2,0.223736242244
"1151","BG",10,28,2,2,2,1,0.364232740023,2,0.364796390788,1,0.516316419062
"1152","BG",10,29,2,2,2,1,0.281253645539,2,0.294193357622,2,0.258800786802
"1153","BG",10,30,1,1,1,1,0.552503260051,2,0.482406126544,2,0.505223587244
"1154","BG",10,31,1,1,1,1,0.563585696669,2,0.447136373068,2,0.470588325885
"1155","BG",10,32,2,1,2,1,0.576269763871,2,0.376626126676,1,0.681351745412
"1156","BG",10,33,1,1,1,1,0.893614768574,2,0.352966654898,2,0.375844561751
"1157","BG",10,34,1,1,1,1,0.529888698224,2,0.410884080831,1,0.822833862012
"1158","BG",10,35,2,2,1,0,0.681863420183,1,0.305994602966,2,0.422195981833
"1159","BG",10,36,2,2,2,1,0.51714264484,1,1.24711542867,2,0.469988099423
"1160","BG",10,37,1,2,1,1,0.528988166028,2,2.95281003391,1,0.669883531427
"1161","BG",10,38,2,2,2,1,0.598588255043,2,0.764756658027,1,0.329670245053
"1162","BG",10,39,2,2,2,1,0.31666084664,2,0.305949942114,2,0.329332593605
"1163","BG",10,40,1,1,1,1,0.610673635814,1,1.42348229139,2,0.446346722991
"1164","BG",10,41,2,1,2,1,0.69446086073,2,1.04696127172,1,0.305219583168
"1165","BG",10,42,1,1,1,1,0.705386984364,2,1.23469162644,1,1.98741988478
"1166","BG",10,43,1,1,1,1,0.423777207026,2,0.647132676999,1,0.98742450487
"1167","BG",10,44,2,1,2,1,0.576037989445,2,0.823571921106,1,0.375116897856
"1168","BG",10,45,2,2,2,1,0.764267698692,2,1.39978855396,1,0.399249158663
"1169","BG",10,46,1,2,1,1,0.892985281553,2,0.400096174837,2,0.517602728623
"1170","BG",10,47,2,2,1,0,1.25829681218,1,0.482447322333,2,0.399368895949
"1171","BG",10,48,2,2,2,1,0.41190781538,2,0.270029526213,2,0.575834705565
"1172","BG",10,49,1,2,1,1,0.365187173249,2,0.305042094778,1,0.469978089232
"1174","BG",11,0,2,1,1,0,0.705219891175,1,1.16471269019,2,0.434359134088
"1175","BG",11,1,2,1,2,1,0.563706588977,2,1.10582196567,1,0.258168219721
"1176","BG",11,2,1,1,1,1,0.375385247982,2,0.917684658189,1,0.669902781792
"1177","BG",11,3,1,1,1,1,0.446596207754,2,0.400112730153,1,1.65809037123
"1178","BG",11,4,2,1,2,1,0.599472231923,2,0.364760585104,1,1.43450851694
"1179","BG",11,5,1,2,1,1,0.975362609548,2,0.364731324546,2,0.435235795827
"1180","BG",11,6,2,2,2,1,0.458336621938,2,0.31775811759,2,0.88172343151
"1181","BG",11,7,2,2,1,0,0.447234164936,1,0.728821226841,2,0.387560720472
"1182","BG",11,8,1,2,1,1,0.576022974159,2,0.317744257327,2,0.386878487445
"1183","BG",11,9,1,2,1,1,0.811146578844,2,0.541307631269,1,0.446446054888
"1184","BG",11,10,1,2,1,1,0.399572179829,2,0.364765590199,1,0.516313724011
"1185","BG",11,11,2,1,2,1,0.552457444175,2,0.764628450579,1,0.305251538777
"1186","BG",11,12,2,1,2,1,0.29364549216,1,0.494228162286,2,0.222975467716
"1187","BG",11,13,1,2,1,1,0.54073166027,2,1.1647396407,1,0.964026068077
"1188","BG",11,14,1,1,1,1,0.647383701793,1,0.340476246394,2,0.387646962119
"1189","BG",11,15,2,2,2,1,0.43477763708,2,0.317799313378,1,0.340523602297
"1190","BG",11,16,1,2,1,1,0.412120339437,2,0.411048478971,2,0.505172766274
"1191","BG",11,17,2,2,2,1,0.728982159913,2,1.0476981758,1,0.352245151122
"1192","BG",11,18,2,2,2,1,0.964233972049,2,0.999978824597,1,0.293436818176
"1193","BG",11,19,1,2,1,1,0.929505153901,1,0.540649268698,2,1.17575239099
"1194","BG",11,20,1,1,2,0,1.27009959755,1,1.05882950835,2,0.246401625038
"1195","BG",11,21,2,1,2,1,0.517159200155,2,0.446498415888,1,0.32941652521
"1196","BG",11,22,2,1,1,0,1.08540887588,1,0.855281511602,2,0.775798283868
"1197","BG",11,23,1,1,1,1,0.716202610889,1,0.364725164427,2,0.387932252566
"1198","BG",11,24,2,1,2,1,0.976003646789,1,0.623595637559,2,0.316933816852
"1199","BG",11,25,1,2,1,1,0.75231476045,1,0.741216923538,2,0.340634099408
"1200","BG",11,26,1,2,1,1,0.646590201641,1,0.458880637327,2,0.434724506065
"1201","BG",11,27,2,2,2,1,1.32891024054,1,0.822924338741,2,0.399964887329
"1202","BG",11,28,1,2,1,1,0.717189384732,2,0.435402889017,2,0.42284048414
"1203","BG",11,29,2,1,2,1,0.482487748104,2,0.340666055017,1,0.317023523565
"1204","BG",11,30,2,2,2,1,0.446701699768,2,0.436054706464,1,0.29264986315
"1205","BG",11,31,2,2,1,0,2.23463849542,1,0.40011311516,2,0.292776145559
"1206","BG",11,32,2,1,2,1,0.975974001225,1,0.411904350312,1,0.740608611921
"1207","BG",11,33,1,1,1,1,0.504666866615,2,0.764820954257,1,0.376509084441
"1208","BG",11,34,1,2,1,1,0.705657644534,1,0.493830064685,2,0.399320000015
"1209","BG",11,35,1,2,1,1,0.870106219678,1,0.435362078239,2,0.716995341027
"1210","BG",11,36,1,2,1,1,0.657716144089,1,1.44705629154,2,0.517632374189
"1211","BG",11,37,2,2,1,0,0.764211872625,1,1.88230633264,2,0.646368822414
"1212","BG",11,38,1,2,1,1,0.540600757771,1,0.517758271595,2,0.493537459099
"1213","BG",11,39,2,2,1,0,1.25831760257,1,0.376545275132,2,0.364000195585
"1214","BG",11,40,1,1,1,1,0.412172315431,1,0.340392699798,2,0.316965002448
"1215","BG",11,41,1,1,1,1,0.434808822674,2,0.988261510853,1,0.787581818873
"1216","BG",11,42,2,1,1,0,0.599467226826,1,0.318414940133,2,0.246355809164
"1217","BG",11,43,1,1,1,1,0.398903807069,1,0.353002460581,2,0.282343986359
"1218","BG",11,44,2,1,2,1,0.799521281859,2,0.564782684525,1,0.316991567954
"1219","BG",11,45,1,1,1,1,0.551826032119,1,0.458893342568,2,0.329467346179
"1220","BG",11,46,2,2,1,0,0.517861068558,1,0.599387915312,2,0.516337594467
"1221","BG",11,47,2,2,2,1,0.705227206314,2,0.306026558577,1,0.269438154921
"1222","BG",11,48,1,2,2,0,0.493651806282,1,0.352999380522,2,0.269939819502
"1223","BG",11,49,2,2,1,0,0.505423791068,1,0.400081929565,2,0.316993107983
"1225","EU",0,0,1,1,2,0,1.37641946851,2,2.21103211218,1,0.399120569593
"1226","EU",0,1,1,1,2,0,0.870064369131,1,5.01155479615,2,2.28166066892
"1227","EU",0,2,2,1,1,0,3.35231579105,1,0.0235970097365,1,0.764032982683
"1228","EU",0,3,1,1,2,0,0.317195555646,1,2.44704032513,2,0.681674067121
"1229","EU",0,4,1,2,1,1,2.57580322812,1,0.694239503681,1,0.893426140281
"1230","EU",0,5,1,1,2,0,2.86996734765,1,2.04702923696,1,0.305204932849
"1231","EU",0,6,2,2,2,1,0.505443790491,1,3.09401535326,1,0.811058754591
"1232","EU",0,7,2,2,2,1,0.387753656305,2,0.482412739382,1,0.552307859933
"1233","EU",0,8,2,1,2,1,1.01127682192,2,0.400100024525,1,0.469934699154
"1234","EU",0,9,2,1,2,1,0.375994807041,1,2.16466662534,1,2.62274391373
"1235","EU",0,10,1,2,1,1,1.52905735548,1,0.447156596902,1,1.05795647355
"1236","EU",0,11,2,2,2,1,0.528899503073,2,0.588350569405,2,1.28136036434
"1237","EU",0,12,1,2,2,0,0.446578318086,1,0.635367871183,1,0.434678556674
"1238","EU",0,13,2,2,2,1,0.434717827273,2,0.541109964222,1,0.658398537286
"1239","EU",0,14,2,2,2,1,0.423744774989,2,1.03466130841,1,1.36401034434
"1240","EU",0,15,1,1,1,1,0.600216835306,2,2.2581040848,1,0.658142508383
"1241","EU",0,16,1,1,1,1,2.39937082341,1,0.600085163298,1,0.587530506903
"1242","EU",0,17,2,2,2,1,0.90498132144,1,3.08328793472,1,0.434663926452
"1243","EU",0,18,1,2,2,0,0.823062082581,1,1.09412161488,1,0.281698399492
"1244","EU",0,19,2,1,2,1,0.74074320763,1,0.541887291072,1,0.387566158446
"1245","EU",0,20,1,1,1,1,0.670100405681,1,0.31776189928,1,0.422853486401
"1246","EU",0,21,1,1,2,0,0.528960719006,2,0.588307063741,1,0.434599245466
"1247","EU",0,22,2,2,2,1,0.563599312071,2,0.623579761474,1,0.400041503633
"1248","EU",0,23,1,2,2,0,0.423720904625,1,4.32855669385,2,0.598714157397
"1249","EU",0,24,1,2,2,0,0.528963414047,1,4.95261193757,1,0.352309245955
"1250","EU",0,25,2,1,1,0,1.76386088506,1,0.283391655306,1,1.08098136456
"1251","EU",0,26,2,1,2,1,0.540751523757,2,0.482379628878,1,2.58710623043
"1252","EU",0,27,2,1,2,1,0.457731168112,1,0.129493259125,1,0.458848455145
"1253","EU",0,28,1,2,1,1,1.12155944317,1,0.312360266932,1,0.376734403316
"1254","EU",0,29,2,2,1,0,1.32890935922,1,1.10655537944,1,2.61031938932
"1255","EU",0,30,1,2,1,1,0.446620668732,1,1.97642185555,1,0.528729715485
"1256","EU",0,31,2,2,2,1,4.10582348328,1,0.905282011024,1,0.622858260474
"1257","EU",0,32,1,1,2,0,0.646595027341,1,1.92938722851,1,1.1633522153
"1258","EU",0,33,1,1,1,1,1.86994347729,1,1.98893185127,1,0.822916165357
"1259","EU",0,34,1,2,1,1,0.434005181409,2,0.858920374241,1,0.423737844883
"1260","EU",0,35,2,2,1,0,0.870761229755,1,0.293565050399,1,0.422851946378
"1261","EU",0,36,2,2,2,1,0.611792806781,1,0.681775323665,1,0.446495541824
"1262","EU",0,37,1,2,1,1,2.91707089075,1,1.05884776213,1,0.480952797126
"1263","EU",0,38,2,1,1,0,0.823723137659,1,0.658173308852,1,0.375870835151
"1264","EU",0,39,2,1,2,1,0.870738129403,2,0.622916011354,1,0.433963215769
"1265","EU",0,40,2,1,2,1,1.09339857386,2,0.694352695407,1,0.846383428115
"1266","EU",0,41,2,2,2,1,4.11795193818,1,1.11701791394,1,0.98716236429
"1267","EU",0,42,2,2,2,1,0.328969805144,2,0.918322544827,1,0.269945325317
"1268","EU",0,43,2,2,2,1,0.376005972211,1,0.34105282935,1,0.352260735215
"1269","EU",0,44,1,1,2,0,1.50611447072,1,1.75220483236,1,0.752292613701
"1270","EU",0,45,1,1,2,0,0.622416658742,1,1.34181129091,1,0.294103288605
"1271","EU",0,46,2,1,2,1,0.493235254371,1,0.788025008441,1,0.51766349178
"1272","EU",0,47,1,2,2,0,0.269450592774,1,1.68238170791,1,0.388308064757
"1273","EU",0,48,1,2,1,1,1.1877138467,1,0.541227006006,1,0.28172842995
"1274","EU",0,49,1,1,2,0,2.08181875233,2,2.91750440735,1,0.611071305782
"1276","EU",1,0,1,1,1,1,0.552287454622,1,0.647116325289,1,0.587329918845
"1277","EU",1,1,1,1,2,0,1.91709091105,1,0.658869014458,1,0.352263815262
"1278","EU",1,2,2,2,2,1,0.681744908201,2,0.506666569132,1,0.257560456509
"1279","EU",1,3,1,2,1,1,1.16403560072,1,0.247928764674,1,0.281684924287
"1280","EU",1,4,1,2,2,0,2.99935858022,1,1.52942850114,1,0.340471085482
"1281","EU",1,5,1,1,2,0,0.306095836431,2,0.375892010473,1,0.222985774418
"1282","EU",1,6,2,1,2,1,0.246628599853,2,1.05885045718,1,0.140578733123
"1283","EU",1,7,2,2,2,1,0.23486320549,2,0.376514179959,1,0.869270872034
"1284","EU",1,8,2,2,1,0,0.776000120122,1,0.353013806695,1,0.316988807494
"1285","EU",1,9,2,1,2,1,0.787744724168,1,0.364802301411,1,0.246384121126
"1286","EU",1,10,2,1,1,0,0.811987003742,1,2.52856839803,1,1.18753096891
"1287","EU",1,11,2,1,2,1,0.22240865062,2,1.09415588041,1,0.164100281709
"1288","EU",1,12,2,2,2,1,0.235619742023,2,3.74034665158,1,0.422064609375
"1289","EU",1,13,1,2,2,0,1.86997658779,1,0.459628477036,1,0.246495387822
"1290","EU",1,14,2,2,2,1,2.01197406754,1,4.18737196149,1,4.65777713781
"1291","EU",1,15,2,1,1,0,0.870126355076,1,0.188317920907,1,0.975127465818
"1292","EU",1,16,1,1,1,1,2.63483348304,1,0.141137761645,1,0.963208839119
"1293","EU",1,17,1,1,1,1,1.24600412033,1,0.694664935167,1,1.34044490508
"1294","EU",1,18,1,2,1,1,2.50547151091,1,0.423581147495,1,0.399166385291
"1295","EU",1,19,1,2,2,0,0.281838926634,1,0.764724068219,1,0.575678101213
"1296","EU",1,20,2,2,2,1,0.281888207386,2,0.3648015314,1,0.246395671302
"1297","EU",1,21,1,1,2,0,0.387785611792,2,3.72925386248,1,0.339808875387
"1298","EU",1,22,1,1,1,1,0.423072939747,2,0.482410814353,2,3.36320414205
"1299","EU",1,23,2,1,2,1,0.91711709145,1,0.67065789418,1,0.352276520455
"1300","EU",1,24,1,2,2,0,1.43476787804,1,2.47049334267,1,0.398705918271
"1301","EU",1,25,2,2,2,1,0.411985540719,1,0.481772474622,1,1.06921366016
"1302","EU",1,26,2,1,2,1,1.71704917641,1,0.646493000786,1,0.399326162727
"1303","EU",1,27,1,2,2,0,1.04726101049,1,6.79897380536,1,0.446358479735
"1304","EU",1,28,1,2,2,0,3.1875825597,1,1.67055278758,1,0.551646804856
"1305","EU",1,29,2,1,1,0,1.59946029877,1,5.30562458925,1,0.340497650886
"1306","EU",1,30,2,1,2,1,0.552950434729,1,0.399418564136,1,0.305271538864
"1307","EU",1,31,2,1,2,1,1.39939584879,1,0.32958542953,1,0.328737646605
"1308","EU",1,32,1,2,1,1,0.222415965731,2,1.48237154375,1,0.199371054412
"1309","EU",1,33,2,2,1,0,0.235428779112,1,1.32882465793,1,0.622883285856
"1310","EU",1,34,1,2,1,1,0.975985258895,1,0.494192763968,1,0.505223567133
"1311","EU",1,35,2,1,2,1,0.234146324561,1,0.8235552751,1,0.352321566142
"1312","EU",1,36,2,1,2,1,0.340665898451,1,0.941260039509,1,0.387625064344
"1313","EU",1,37,1,1,2,0,0.270911690049,1,0.858206188354,1,0.575702741588
"1314","EU",1,38,1,1,2,0,0.529014619828,1,1.51764616652,1,0.375696427492
"1315","EU",1,39,1,2,1,1,0.270131668157,1,1.1647293813,1,0.4699835949
"1316","EU",1,40,2,2,2,1,0.728238216992,1,0.623641747418,1,0.55291963426
"1317","EU",1,41,1,2,1,1,1.39941124902,1,0.364830791845,1,0.398634692186
"1318","EU",1,42,1,1,1,1,0.928818189833,1,1.7647687289,1,2.25802438858
"1319","EU",1,43,1,1,2,0,0.387812947209,1,2.23523358114,2,0.822842629236
"1320","EU",1,44,1,1,1,1,0.470233848715,1,1.04613217329,1,0.293595850869
"1321","EU",1,45,2,2,2,1,1.6818430847,1,2.58809608052,1,0.551767311693
"1322","EU",1,46,2,2,1,0,0.84667564757,1,3.28203643465,1,1.69274760594
"1323","EU",1,47,2,2,2,1,0.657694746556,1,1.63526738465,1,0.541181190307
"1324","EU",1,48,2,2,2,1,0.176664178245,2,2.08165435482,1,0.140563717894
"1325","EU",1,49,1,1,1,1,0.623065393632,1,3.94098206527,2,1.6581236431
"1327","EU",2,0,2,1,2,1,1.44551108182,1,0.976610123421,1,0.658676511523
"1328","EU",2,1,2,2,2,1,1.25889758189,2,0.564080954414,1,1.18770268153
"1329","EU",2,2,2,2,2,1,0.328283724685,2,0.294170664632,1,0.375823864435
"1330","EU",2,3,2,1,2,1,0.270747677548,2,1.14055871282,1,0.152320257122
"1331","EU",2,4,1,1,1,1,1.21133010673,1,1.8234698038,1,0.704276991702
"1332","EU",2,5,1,1,1,1,0.164151102484,2,0.965830344084,1,0.222824456959
"1333","EU",2,6,1,2,1,1,0.445742470344,2,2.27094441555,1,0.482615637476
"1334","EU",2,7,2,2,1,0,0.352534474388,1,1.64703470404,1,0.692759926125
"1335","EU",2,8,1,2,1,1,0.176033153626,2,1.24706943157,1,0.175798685051
"1336","EU",2,9,1,1,1,1,0.258350873559,2,2.09405269883,1,0.540578656122
"1337","EU",2,10,2,1,1,0,1.48248319546,1,1.59932400669,1,0.470149147424
"1338","EU",2,11,2,1,2,1,1.55240141636,1,2.30582440729,1,0.64638173409
"1339","EU",2,12,1,2,2,0,0.353150868785,1,0.540568260963,1,0.411146227924
"1340","EU",2,13,1,2,2,0,4.50446587558,2,3.30574740612,1,0.552949279712
"1341","EU",2,14,2,2,2,1,4.57569196142,1,0.7647294583,1,0.269898739607
"1342","EU",2,15,1,2,2,0,0.246645155105,2,0.447101926069,1,0.211060987625
"1343","EU",2,16,1,1,1,1,1.18769960148,1,0.141318714404,1,0.434523399309
"1344","EU",2,17,2,1,2,1,2.37591588084,1,2.94107408167,1,0.61032862946
"1345","EU",2,18,1,1,2,0,0.304764101129,1,1.00002849043,2,5.92903725817
"1346","EU",2,19,2,1,1,0,0.70544702454,1,0.529443901372,1,0.281667599023
"1347","EU",2,20,2,1,2,1,0.717172378293,2,0.341246872309,1,1.55155748349
"1348","EU",2,21,2,2,2,1,1.47003249065,1,0.25891375214,1,0.364084650471
"1349","EU",2,22,2,2,2,1,0.235397978642,2,1.32858864933,1,0.175186140713
"1350","EU",2,23,1,2,1,1,2.30631528978,1,0.904881219914,1,0.316056708285
"1351","EU",2,24,1,2,1,1,0.17601505835,2,0.905940756067,1,0.199491561249
"1352","EU",2,25,2,2,1,0,0.728293657837,2,1.43526299558,1,0.670573577894
"1353","EU",2,26,2,1,2,1,0.222918398391,2,0.717138882782,1,0.117802940906
"1354","EU",2,27,1,1,1,1,1.12891382529,1,0.882392642076,1,0.31701999297
"1355","EU",2,28,1,1,1,1,0.446588713245,2,0.729460610627,1,0.5876090481
"1356","EU",2,29,1,2,2,0,0.834762025947,1,0.164843343037,1,0.340516516174
"1357","EU",2,30,1,2,1,1,0.375992882011,1,0.211845244581,1,0.26990951977
"1358","EU",2,31,2,1,2,1,0.741513219369,1,4.05774202528,1,0.751341649203
"1359","EU",2,32,2,1,1,0,0.340780245195,1,1.75299370939,1,0.293335586901
"1360","EU",2,33,1,1,1,1,1.35232387618,1,0.329924619701,1,1.23530134217
"1361","EU",2,34,1,1,2,0,0.328140887508,1,0.153185365311,1,0.305911803625
"1362","EU",2,35,2,2,2,1,0.517168759238,2,2.57638689702,1,0.222256958307
"1363","EU",2,36,2,2,2,1,0.27011934797,1,1.0477468879,1,0.293495364337
"1364","EU",2,37,2,2,2,1,0.164264679215,2,1.63528855997,1,0.0935233157629
"1365","EU",2,38,1,2,1,1,0.305409755972,1,0.517727017748,1,0.316378188185
"1366","EU",2,39,1,1,2,0,0.327992275242,1,3.23515734997,1,0.43495114083
"1367","EU",2,40,2,1,1,0,0.258258087144,1,0.62367793797,1,0.269973430745
"1368","EU",2,41,1,1,2,0,0.257676343276,1,3.91811887672,1,0.317586336604
"1369","EU",2,42,2,1,1,0,0.329613149952,1,1.41111042238,1,0.269979205833
"1370","EU",2,43,1,1,1,1,0.281914002779,1,0.635298185121,1,0.257513100787
"1371","EU",2,44,2,1,2,1,0.24657200399,1,1.00004042562,1,0.458177389914
"1372","EU",2,45,2,2,2,1,0.199526596783,2,1.52981735707,1,0.211209214885
"1373","EU",2,46,2,2,2,1,0.258242686909,2,1.18825708998,1,0.246533888409
"1374","EU",2,47,1,2,1,1,0.316531420521,2,0.729127965556,2,2.57635571154
"1375","EU",2,48,1,2,1,1,0.246779522154,2,1.43532921659,1,0.246173137909
"1376","EU",2,49,1,2,2,0,0.481854480871,2,0.823595315711,1,0.364051539966
"1378","EU",3,0,2,1,2,1,0.845708897832,1,2.18820742422,1,0.352685396689
"1379","EU",3,1,2,1,2,1,0.669406240098,2,1.05880040641,1,0.270645265987
"1380","EU",3,2,1,1,1,1,0.340026788708,1,2.36464483401,1,0.622908696243
"1381","EU",3,3,1,2,1,1,0.24657854909,1,0.824276776099,1,0.422849251337
"1382","EU",3,4,1,2,2,0,1.1766741884,1,1.99927503395,1,0.293424523257
"1383","EU",3,5,1,2,2,0,0.647246842278,1,2.56398932302,1,0.246413766578
"1384","EU",3,6,1,2,1,1,0.235005657661,2,1.09346517988,1,1.05866950442
"1385","EU",3,7,2,1,2,1,0.246582014143,1,0.964751942643,1,0.387595803898
"1386","EU",3,8,2,1,2,1,0.363568742605,2,2.0705346153,1,0.352277290467
"1387","EU",3,9,2,1,1,0,0.599509194518,1,0.247129107483,1,0.352382012064
"1388","EU",3,10,1,2,2,0,1.29356813045,1,1.14120167262,1,1.29345301369
"1389","EU",3,11,2,2,1,0,0.317222506057,1,1.95285102621,1,0.775819552369
"1390","EU",3,12,2,2,2,1,0.223055075474,1,1.70590787657,2,0.834660769403
"1391","EU",3,13,1,1,1,1,0.223063160598,2,0.646472210469,1,0.647072819625
"1392","EU",3,14,2,1,2,1,0.340688613798,1,1.14125749847,1,0.328867008578
"1393","EU",3,15,1,1,1,1,0.375263295889,1,0.600116348774,1,0.411843473554
"1394","EU",3,16,2,1,2,1,1.14050866205,1,0.212013877152,1,0.340458765294
"1395","EU",3,17,1,2,1,1,0.328914749306,1,1.44712887648,1,0.352225314675
"1396","EU",3,18,1,2,1,1,6.48250167574,1,1.79889872921,1,0.492801352756
"1397","EU",3,19,2,2,2,1,0.281867417068,1,0.447136961603,1,0.317022688011
"1398","EU",3,20,2,2,2,1,0.305803616976,2,4.71649322794,1,0.28215347643
"1399","EU",3,21,1,2,1,1,0.281219067185,1,1.32941564194,1,0.223531327735
"1400","EU",3,22,2,1,2,1,0.210622080933,2,0.952953822781,1,0.153005182564
"1401","EU",3,23,2,1,1,0,0.388208348236,1,0.575638060602,1,0.505677874059
"1402","EU",3,24,1,1,2,0,0.211931870901,1,0.822919245404,1,0.15165689201
"1403","EU",3,25,1,1,1,1,0.27086587435,2,0.387655094802,1,1.48147294006
"1404","EU",3,26,1,2,1,1,0.27078579313,1,1.23464875722,1,0.610255093339
"1405","EU",3,27,2,2,2,1,0.352522539206,2,0.470640414913,2,1.39926648682
"1406","EU",3,28,2,2,2,1,0.328996755555,2,0.553008955621,2,0.340513436127
