"","participant","blocks.thisRepN","trials.thisN","firstgabor","key_resp_5.keys","resp.keys","resp.corr","resp.rt","key_resp_2.keys","key_resp_2.rt","resp_mrating.keys","resp_mrating.rt"
"1","AC",0,0,1,1,2,0,2.446140766,1,1.918789387,1,1.633206844
"2","AC",0,1,1,1,1,1,1.704405427,1,0.929433167,1,0.812043428
"3","AC",0,2,2,1,2,1,1.55234158,2,1.446147323,1,1.846280932
"4","AC",0,3,1,1,1,1,2.398402691,1,1.317691803,1,1.011983633
"5","AC",0,4,2,1,2,1,2.364118576,2,1.365719438,1,4.904830933
"6","AC",0,5,2,1,2,1,3.423727751,2,2.081420422,1,1.093405962
"7","AC",0,6,2,1,2,1,2.845516682,2,2.83518362,1,0.435458094
"8","AC",0,7,1,1,1,1,2.423422098,1,1.000510931,1,0.657183647
"9","AC",0,8,2,1,2,1,2.234652519,1,1.670677662,1,1.894231915
"10","AC",0,9,1,1,1,1,1.692587733,2,0.95401293,2,1.434492111
"11","AC",0,10,1,1,1,1,1.834727407,1,2.435801029,2,2.175668001
"12","AC",0,11,2,1,2,1,1.069150448,2,0.54220289,2,0.952281594
"13","AC",0,12,1,1,1,1,1.633790135,1,1.800013185,1,0.799285591
"14","AC",0,13,1,1,2,0,2.975769758,1,0.611866117,1,0.812046885
"15","AC",0,14,2,1,2,1,1.093591928,2,0.75298053,2,1.37585187
"16","AC",0,15,1,1,1,1,0.692635536,2,0.330515116,2,0.50612694
"17","AC",0,16,1,2,1,1,3.398250341,2,0.318688959,1,2.81102705
"18","AC",0,17,2,2,2,1,1.127701998,2,0.529691815,1,0.506159306
"19","AC",0,18,2,1,1,0,1.706283808,1,2.728372335,1,0.834588051
"20","AC",0,19,2,2,1,0,1.058354497,1,1.376483679,1,0.833616674
"21","AC",0,20,1,1,2,0,1.352411032,1,3.058702469,1,0.728758395
"22","AC",0,21,1,1,1,1,0.892555296,2,0.953584015,1,0.693427086
"23","AC",0,22,1,2,1,1,0.775926292,2,1.517679334,2,2.022745132
"24","AC",0,23,2,2,1,0,1.481842875,1,0.388341427,1,0.741530538
"25","AC",0,24,2,1,2,1,2.092554808,2,0.317764193,1,2.682432175
"26","AC",0,25,1,1,1,1,0.858261883,2,0.294213951,2,0.704274893
"27","AC",0,26,2,2,2,1,0.692635119,2,0.40004012,2,1.11687994
"28","AC",0,27,2,2,2,1,1.682714701,1,0.799078822,2,1.857113481
"29","AC",0,28,1,1,1,1,0.918092906,2,2.151928425,1,0.775986731
"30","AC",0,29,2,2,1,0,1.339704394,2,0.318695128,1,0.858089805
"31","AC",0,30,2,2,2,1,1.694334149,1,0.611698985,1,0.927889287
"32","AC",0,31,1,2,2,0,0.635780156,2,1.846076131,1,0.433623165
"33","AC",0,32,1,2,2,0,1.305523753,1,0.258723587,1,0.740266562
"34","AC",0,33,2,2,1,0,0.976047039,1,2.058838129,1,0.646238029
"35","AC",0,34,1,2,1,1,2.540549755,2,3.000876665,1,0.76403892
"36","AC",0,35,1,2,2,0,1.859222054,2,2.034279585,1,0.305384427
"37","AC",0,36,2,1,1,0,0.612179101,2,0.587365687,1,1.023053169
"38","AC",0,37,2,1,2,1,0.670053899,2,0.682405233,2,0.752266347
"39","AC",0,38,1,1,2,0,1.917087674,2,0.952888727,1,0.340527117
"40","AC",0,39,2,2,2,1,1.81018889,2,0.471660316,1,1.148179173
"41","AC",0,40,2,1,2,1,0.599593341,2,0.27162388,1,1.25808835
"42","AC",0,41,1,2,1,1,1.046079874,1,0.470129937,1,0.976716578
"43","AC",0,42,1,2,1,1,5.434406757,1,1.000058532,1,0.374870539
"44","AC",0,43,1,2,1,1,1.15194881,1,1.658293247,1,1.246305704
"45","AC",0,44,2,2,1,0,1.23601532,2,1.564759851,1,0.598914206
"46","AC",0,45,2,2,1,0,2.128884077,1,0.354002982,1,0.752185464
"47","AC",0,46,2,2,1,0,0.871241093,1,1.470677376,1,1.187226653
"48","AC",0,47,1,1,1,1,1.058255196,2,0.388359517,2,0.847347081
"49","AC",0,48,1,1,1,1,0.598558843,2,1.470572233,1,0.800266564
"50","AC",0,49,2,2,2,1,0.658306718,2,0.506038368,1,0.610119343
"51","AC",1,0,1,2,1,1,0.481607646,2,0.435454249,2,1.069583893
"52","AC",1,1,2,2,1,0,0.494515628,2,0.43496874,1,0.386652797
"53","AC",1,2,1,2,1,1,0.59934926,2,0.658934236,2,2.127713919
"54","AC",1,3,2,1,2,1,0.400482088,2,0.223262116,2,0.634607852
"55","AC",1,4,1,2,1,1,1.527943492,1,1.777378559,1,1.14048183
"56","AC",1,5,1,1,1,1,0.375999361,2,0.457939953,1,0.552496731
"57","AC",1,6,2,2,2,1,1.093726277,2,1.189262152,1,0.669907629
"58","AC",1,7,1,2,1,1,0.706350863,2,0.328493834,2,2.834429502
"59","AC",1,8,2,1,2,1,0.669141471,2,0.330484688,2,1.163971663
"60","AC",1,9,2,2,2,1,1.398538589,1,1.800974607,2,1.176663637
"61","AC",1,10,1,1,1,1,1.834728241,2,0.235768944,1,1.457075596
"62","AC",1,11,1,2,2,0,0.870102286,2,0.76380986,1,0.753139496
"63","AC",1,12,2,1,2,1,0.821947277,2,0.282452106,1,0.517098784
"64","AC",1,13,2,2,2,1,0.504419863,2,0.91772294,2,0.564018309
"65","AC",1,14,1,2,1,1,0.365124971,2,0.316791683,2,0.775113583
"66","AC",1,15,2,2,2,1,0.517054856,2,0.329593033,2,0.375785321
"67","AC",1,16,2,2,1,0,2.069732428,1,0.635582685,1,0.975557327
"68","AC",1,17,1,1,1,1,3.622962952,1,2.048037529,1,0.92858541
"69","AC",1,18,1,1,2,0,1.341565847,1,1.410805583,1,1.292499542
"70","AC",1,19,2,1,2,1,0.928796351,2,0.329606891,1,0.481674612
"71","AC",1,20,2,1,2,1,0.458304554,2,0.353186399,2,0.52856952
"72","AC",1,21,1,2,1,1,0.422109634,2,0.32954067,2,0.423826367
"73","AC",1,22,1,2,1,1,0.705345213,2,0.658907294,1,1.281696677
"74","AC",1,23,1,2,1,1,0.353415877,2,0.316822082,2,0.422910839
"75","AC",1,24,2,2,1,0,0.951422989,1,1.553032637,2,0.859095812
"76","AC",1,25,2,2,1,0,1.375996351,1,2.800767183,2,1.17579937
"77","AC",1,26,2,2,2,1,1.045598269,1,1.541211128,1,0.48263675
"78","AC",1,27,2,1,2,1,1.210274458,2,0.282455951,2,1.506095767
"79","AC",1,28,1,1,1,1,0.658316731,2,1.03514421,1,0.869867027
"80","AC",1,29,1,1,1,1,1.140304327,2,0.107290342,2,1.422829986
"81","AC",1,30,2,2,1,0,2.376755953,1,1.293156743,1,1.246376157
"82","AC",1,31,2,1,2,1,0.975870728,2,0.048108827,1,1.421891332
"83","AC",1,32,1,1,1,1,0.799274027,2,0.281698257,1,1.105137825
"84","AC",1,33,2,2,2,1,0.410353959,2,0.188335404,2,0.305235416
"85","AC",1,34,1,2,1,1,0.975165367,2,0.388809204,1,0.894234657
"86","AC",1,35,2,2,2,1,1.165104747,2,0.011918925,2,0.799345672
"87","AC",1,36,1,2,2,0,1.387683392,2,1.952916384,1,1.164122224
"88","AC",1,37,2,1,2,1,0.328040689,2,1.105902791,2,0.694525123
"89","AC",1,38,1,1,1,1,0.435931265,2,0.787218034,2,0.704066277
"90","AC",1,39,1,2,1,1,0.529859304,2,0.305091053,2,1.904129267
"91","AC",1,40,1,2,1,1,1.553298235,2,0.317770362,1,1.399297118
"92","AC",1,41,1,2,2,0,1.812189698,1,1.140231609,1,1.505090117
"93","AC",1,42,2,2,2,1,2.953142166,1,5.128228664,1,1.869259119
"94","AC",1,43,1,1,1,1,0.727830946,2,0.376266181,2,0.765030682
"95","AC",1,44,2,2,1,0,1.576815367,1,1.446115732,1,1.222992182
"96","AC",1,45,2,2,2,1,1.83489573,1,1.141214848,2,2.492153645
"97","AC",1,46,1,1,1,1,1.65877676,1,1.681694508,1,1.151302338
"98","AC",1,47,2,1,2,1,0.788748443,2,0.175495937,2,0.564056039
"99","AC",1,48,2,2,1,0,0.552498996,2,0.247152716,2,0.564015627
"100","AC",1,49,1,2,1,1,0.764170229,2,0.622608066,2,1.482560873
"101","AC",2,0,2,2,2,1,1.540412188,1,2.352846861,1,1.410844803
"102","AC",2,1,1,2,1,1,0.799444616,2,0.353040874,1,0.952438235
"103","AC",2,2,2,2,2,1,0.55336988,2,0.093813695,2,0.547207892
"104","AC",2,3,1,2,1,1,0.505875528,2,0.717254162,1,0.410118729
"105","AC",2,4,2,2,1,0,1.305331349,1,0.858835936,1,0.917004526
"106","AC",2,5,1,2,1,1,0.505385041,2,0.375602424,2,0.84741056
"107","AC",2,6,1,2,1,1,0.423104495,2,0.271642745,2,0.622838676
"108","AC",2,7,1,2,1,1,0.729889572,2,0.305986196,2,0.658186197
"109","AC",2,8,2,2,2,1,0.670107424,2,0.495190144,2,0.717004657
"110","AC",2,9,2,2,1,0,0.739712536,2,0.74123174,1,0.529716074
"111","AC",2,10,1,2,2,0,0.49362126,2,0.494223028,2,0.858163357
"112","AC",2,11,1,2,1,1,1.599899411,1,2.905768633,1,0.693927944
"113","AC",2,12,1,1,1,1,1.657236457,2,4.694929123,1,0.835653365
"114","AC",2,13,1,1,2,0,0.54073137,2,0.576515138,2,2.668776751
"115","AC",2,14,2,2,2,1,0.811294973,2,0.471213698,2,0.858325422
"116","AC",2,15,2,2,2,1,2.4219625,2,1.564731002,1,0.846344531
"117","AC",2,16,1,2,2,0,2.246415377,1,0.777477503,1,0.986678481
"118","AC",2,17,2,1,2,1,1.411204457,2,0.059966151,1,0.492519766
"119","AC",2,18,2,1,1,0,0.928941905,2,0.482393801,2,0.905165255
"120","AC",2,19,2,1,2,1,0.940488935,2,0.01197013,2,0.445462406
"121","AC",2,20,2,2,1,0,0.634819627,2,0.318737864,2,0.928708613
"122","AC",2,21,2,2,2,1,2.600245476,2,1.281456113,1,0.351747245
"123","AC",2,22,1,1,1,1,0.493809164,2,0.270621717,2,1.587476969
"124","AC",2,23,2,2,1,0,0.893082321,2,0.29355365,2,0.717904031
"125","AC",2,24,1,2,1,1,0.787710845,2,0.71773845,1,0.646397054
"126","AC",2,25,1,1,1,1,3.659178734,1,1.447077036,1,3.893022299
"127","AC",2,26,1,1,1,1,0.916229904,2,0.506520033,2,0.847267747
"128","AC",2,27,2,1,2,1,2.200412989,2,1.282422066,1,0.881528378
"129","AC",2,28,1,1,1,1,0.787795544,2,0.63533473,1,0.681601703
"130","AC",2,29,2,1,2,1,0.669123352,2,0.352859139,1,0.729168057
"131","AC",2,30,2,1,2,1,0.670093179,2,0.329481751,2,1.398370385
"132","AC",2,31,1,2,1,1,0.599530995,2,0.188341573,1,0.846381068
"133","AC",2,32,1,2,2,0,1.682683587,1,0.904791415,2,4.269635201
"134","AC",2,33,2,1,1,0,1.635687351,1,1.341202021,1,1.36391449
"135","AC",2,34,1,1,1,1,0.423972279,2,0.353049338,1,1.081672192
"136","AC",2,35,1,1,1,1,0.657238305,2,0.800429821,1,0.999278486
"137","AC",2,36,1,1,1,1,1.5170995,1,0.271697819,1,0.752212822
"138","AC",2,37,2,1,2,1,2.399346352,1,0.364820033,1,1.04772687
"139","AC",2,38,2,1,2,1,0.657841623,2,0.376035959,2,0.50574851
"140","AC",2,39,2,2,1,0,0.493605107,2,0.305993885,2,0.575815201
"141","AC",2,40,1,2,1,1,2.022947311,2,1.494097471,1,1.410076737
"142","AC",2,41,2,2,2,1,0.671131909,2,0.293257207,2,0.563949764
"143","AC",2,42,2,1,2,1,1.634670615,1,0.530462623,1,0.869960606
"144","AC",2,43,2,1,1,0,1.680864811,1,0.705901563,1,1.329479456
"145","AC",2,44,1,1,1,1,0.623065054,2,0.353084773,1,0.657170594
"146","AC",2,45,1,1,1,1,1.093603492,2,0.4932459,2,3.129434586
"147","AC",2,46,1,2,1,1,0.9289096,2,0.011490031,2,0.563971341
"148","AC",2,47,2,2,2,1,0.965193391,2,0.375534683,1,0.658140779
"149","AC",2,48,2,2,2,1,0.586916745,2,0.271605402,2,0.623483956
"150","AC",2,49,1,2,2,0,2.294502974,2,0.763728619,1,0.316974163
"151","AC",3,0,2,1,2,1,0.764035106,2,0.27170974,2,0.610802352
"152","AC",3,1,1,2,1,1,0.552500188,2,0.481346607,1,1.563922048
"153","AC",3,2,1,2,2,0,0.398631006,2,0.576550543,1,0.658061445
"154","AC",3,3,1,1,2,0,1.622118354,1,1.223383784,2,2.070754766
"155","AC",3,4,2,1,1,0,0.952303886,2,0.412786812,1,1.246734619
"156","AC",3,5,2,1,2,1,0.634776473,2,0.306005418,2,0.892791271
"157","AC",3,6,1,2,1,1,0.647595942,2,0.564816415,1,2.339283466
"158","AC",3,7,1,2,2,0,0.422998995,2,0.294247836,2,0.587986648
"159","AC",3,8,2,2,1,0,0.517344773,2,1.448068142,2,0.881469488
"160","AC",3,9,2,2,1,0,0.363488704,2,0.294242829,2,0.658874571
"161","AC",3,10,2,2,1,0,0.376040578,2,1.176503897,2,0.587523103
"162","AC",3,11,2,2,2,1,0.518074751,2,0.035454161,1,0.352285117
"163","AC",3,12,1,1,1,1,0.905344307,2,0.329528719,2,0.727744699
"164","AC",3,13,1,2,2,0,1.164188385,2,0.423565716,1,1.434356213
"165","AC",3,14,2,1,2,1,0.494555295,2,0.29429093,1,1.398338795
"166","AC",3,15,1,1,1,1,0.786584735,2,0.201086715,2,1.035630822
"167","AC",3,16,1,1,2,0,2.634576321,1,1.541257262,1,0.65741545
"168","AC",3,17,2,1,2,1,1.140676618,2,0.248146012,1,0.328778356
"169","AC",3,18,2,1,1,0,0.739762187,2,0.282420903,2,0.622837543
"170","AC",3,19,1,1,1,1,0.646601439,2,0.32850194,2,0.647500813
"171","AC",3,20,1,1,2,0,2.744267941,2,0.677733183,1,0.717873991
"172","AC",3,21,2,1,2,1,0.482909322,2,1.034271836,1,0.611158073
"173","AC",3,22,1,2,1,1,0.599467874,2,0.553051889,2,1.681836605
"174","AC",3,23,1,2,1,1,0.904419899,2,0.482431531,1,1.258065224
"175","AC",3,24,1,2,1,1,0.469168574,2,0.317783058,2,0.752191246
"176","AC",3,25,2,2,2,1,0.540735662,2,0.365805656,1,0.574818432
"177","AC",3,26,2,1,1,0,0.459384114,2,0.304997504,1,0.645385265
"178","AC",3,27,2,1,2,1,0.611307442,2,0.258866429,1,0.469947815
"179","AC",3,28,2,1,1,0,2.694546223,1,1.258683562,1,1.175771952
"180","AC",3,29,1,1,1,1,0.341626674,2,0.341279417,1,0.539560199
"181","AC",3,30,2,1,1,0,0.493620872,2,0.317769974,1,1.186579823
"182","AC",3,31,2,1,2,1,2.105287075,1,0.753035545,1,1.8217628
"183","AC",3,32,2,1,1,0,0.340590626,2,0.294347525,2,1.611007571
"184","AC",3,33,1,2,1,1,0.328854591,2,0.306072026,2,0.823827982
"185","AC",3,34,1,2,1,1,0.246632189,2,0.341207415,2,0.575791299
"186","AC",3,35,2,2,2,1,1.292922974,2,0.69474107,1,1.092500448
"187","AC",3,36,1,2,1,1,0.458383471,2,0.282934517,2,0.58762902
"188","AC",3,37,2,2,2,1,1.198376298,2,0.118434258,1,1.059010625
"189","AC",3,38,1,1,1,1,0.399613529,2,0.247145787,2,0.822803915
"190","AC",3,39,1,1,1,1,0.339795232,2,0.282486379,2,0.470899552
"191","AC",3,40,1,1,1,1,2.61110878,1,1.577455282,1,1.798313856
"192","AC",3,41,1,1,2,0,2.247514248,1,0.893216312,1,1.387338042
"193","AC",3,42,1,1,1,1,0.681753397,2,0.29429093,2,0.622881055
"194","AC",3,43,2,1,2,1,0.599469781,2,0.695180357,2,0.422953188
"195","AC",3,44,1,2,1,1,0.54069519,2,1.211818695,1,1.186550975
"196","AC",3,45,2,1,1,0,0.823031425,1,2.941058636,1,1.482548952
"197","AC",3,46,2,1,1,0,0.822173238,2,0.329368174,1,0.600094259
"198","AC",3,47,2,2,2,1,0.881812155,2,0.471857429,1,1.446229339
"199","AC",3,48,2,1,2,1,0.763261259,2,0.189344883,2,0.717897117
"200","AC",3,49,1,2,1,1,0.340663791,2,0.305621207,2,0.658188522
"201","AC",4,0,1,1,2,0,0.633728087,2,0.176613986,1,0.541126013
"202","AC",4,1,2,1,1,0,0.728832364,2,0.329596877,1,0.928678572
"203","AC",4,2,2,1,2,1,0.481918335,2,0.305908799,2,0.434615701
"204","AC",4,3,2,2,2,1,0.493698269,2,0.271700114,2,0.387494415
"205","AC",4,4,2,2,2,1,0.457717419,2,0.212002322,1,0.387040108
"206","AC",4,5,1,2,1,1,0.30538097,2,0.341156214,1,0.845404327
"207","AC",4,6,1,1,2,0,0.482395738,2,0.623049676,1,1.068946004
"208","AC",4,7,1,1,1,1,0.482830793,2,0.292972684,2,0.728765726
"209","AC",4,8,1,2,2,0,0.494550675,2,0.235408574,2,1.022362471
"210","AC",4,9,2,2,2,1,0.435161263,2,0.564281642,1,0.55136019
"211","AC",4,10,1,1,1,1,0.365203887,2,0.28149268,2,1.363931894
"212","AC",4,11,2,1,2,1,0.658321321,2,0.164790168,2,0.870074928
"213","AC",4,12,2,1,2,1,1.612010479,2,0.858593404,1,0.564105332
"214","AC",4,13,1,1,1,1,0.445808113,2,0.306007743,1,0.670627177
"215","AC",4,14,1,1,2,0,3.164119959,2,0.964459956,1,0.352164209
"216","AC",4,15,2,2,2,1,1.906224012,1,0.728515089,1,1.705339432
"217","AC",4,16,2,2,2,1,0.434898287,2,0.24712345,1,0.434525996
"218","AC",4,17,2,1,2,1,2.02387166,2,0.729494929,1,0.421944469
"219","AC",4,18,1,1,1,1,0.86912477,2,0.364799261,2,0.50618583
"220","AC",4,19,1,2,2,0,1.35357368,2,0.916731954,1,0.740267336
"221","AC",4,20,1,2,2,0,0.493625879,2,0.293262988,2,0.447298467
"222","AC",4,21,2,2,1,0,2.199398756,1,1.095126152,1,0.858152568
"223","AC",4,22,2,1,2,1,0.528983414,2,0.342133731,2,0.445405036
"224","AC",4,23,1,1,2,0,2.034334898,1,1.118656039,2,1.693672657
"225","AC",4,24,2,1,1,0,1.339639664,2,0.529558241,1,0.823789477
"226","AC",4,25,1,1,2,0,0.740569532,2,0.195846438,2,0.387650341
"227","AC",4,26,2,2,1,0,0.470097572,2,0.164797857,1,0.717027009
"228","AC",4,27,1,1,1,1,0.657885134,2,0.694220185,2,0.517393649
"229","AC",4,28,2,2,2,1,0.539805055,2,0.77642256,1,0.611995876
"230","AC",4,29,1,1,1,1,0.258457184,2,0.305979252,2,0.504151881
"231","AC",4,30,2,1,2,1,2.552320719,1,1.188279986,1,0.563070834
"232","AC",4,31,2,1,2,1,0.576027334,2,0.212828919,2,0.975754797
"233","AC",4,32,2,2,2,1,0.646402776,2,0.706233025,1,0.833925486
"234","AC",4,33,1,2,1,1,0.492628336,2,0.059004411,2,0.364032716
"235","AC",4,34,1,2,1,1,0.847533405,2,1.069702864,1,0.493168503
"236","AC",4,35,1,1,1,1,0.339783281,2,0.294213563,2,1.235450149
"237","AC",4,36,1,1,1,1,1.116928101,2,0.023694627,2,0.364022315
"238","AC",4,37,2,2,2,1,0.482810766,2,0.340866297,1,0.587579727
"239","AC",4,38,1,2,1,1,0.31713587,2,0.306952924,2,0.975618541
"240","AC",4,39,2,2,2,1,0.387747347,2,0.200094178,1,0.974814653
"241","AC",4,40,2,1,2,1,0.435786486,2,0.281420678,2,0.881665826
"242","AC",4,41,1,1,1,1,0.729160368,2,0.424741149,2,0.574369133
"243","AC",4,42,1,2,1,1,1.775705338,1,0.330641389,2,2.198177338
"244","AC",4,43,2,2,2,1,0.470080256,2,0.2589342,2,0.376747429
"245","AC",4,44,2,2,1,0,0.328917354,2,0.294255137,2,0.340560228
"246","AC",4,45,2,2,1,0,0.940707624,2,0.176584736,1,0.6699211
"247","AC",4,46,2,1,2,1,0.58779186,2,0.66979599,2,0.61194849
"248","AC",4,47,1,2,1,1,0.364230603,2,0.471671849,2,0.611093402
"249","AC",4,48,1,1,1,1,0.399523824,2,0.293895155,2,0.34050709
"250","AC",4,49,1,1,1,1,0.294541568,2,0.328456491,2,0.234603539
"251","AC",5,0,2,2,2,1,0.646408975,2,1.011163592,1,0.576000392
"252","AC",5,1,1,1,1,1,0.352726698,2,0.364575177,2,0.704950988
"253","AC",5,2,1,2,1,1,0.658859551,2,1.398850799,1,0.763983488
"254","AC",5,3,2,1,2,1,1.093622684,2,0.20006606,1,1.528684258
"255","AC",5,4,1,1,1,1,0.800379753,2,0.975657403,2,1.552341938
"256","AC",5,5,1,2,1,1,0.610849679,2,0.270175129,1,0.435506612
"257","AC",5,6,1,1,2,0,0.705329418,2,0.305991948,1,0.717072427
"258","AC",5,7,2,1,1,0,1.906123161,1,0.763864934,1,0.739959717
"259","AC",5,8,2,1,2,1,0.446460307,2,0.447834402,1,0.752283275
"260","AC",5,9,2,2,1,0,2.470665932,2,0.763903439,2,0.527733684
"261","AC",5,10,1,2,1,1,0.293145955,2,0.376542598,2,0.470448703
"262","AC",5,11,2,1,2,1,0.564195395,2,0.364895493,1,0.551282763
"263","AC",5,12,2,1,2,1,0.518081665,2,0.269705802,2,0.99401015
"264","AC",5,13,1,2,1,1,2.105173111,1,2.047137022,1,1.022803307
"265","AC",5,14,2,1,1,0,2.492762327,1,1.282558322,1,0.646829009
"266","AC",5,15,1,1,1,1,0.657984436,2,0.823267817,1,1.011760712
"267","AC",5,16,1,2,1,1,0.480988562,2,1.211807132,1,0.517868757
"268","AC",5,17,2,2,1,0,1.046564937,1,0.822550178,1,1.18847096
"269","AC",5,18,2,1,2,1,0.458556354,2,0.341228604,1,0.528559148
"270","AC",5,19,1,2,1,1,0.388705641,2,0.352067977,2,0.504234254
"271","AC",5,20,2,2,2,1,0.327982187,2,0.330473155,1,0.364943236
"272","AC",5,21,1,1,1,1,0.353440493,2,0.282459408,1,0.916849375
"273","AC",5,22,1,2,1,1,1.798425078,1,0.789324403,1,1.777755499
"274","AC",5,23,2,2,1,0,0.328944683,2,0.294182748,1,0.446331739
"275","AC",5,24,2,1,2,1,0.329428643,2,0.281363696,2,0.763621986
"276","AC",5,25,1,2,1,1,0.306381971,2,0.305042535,1,1.03460288
"277","AC",5,26,1,1,1,1,0.351911664,2,0.342267722,2,0.376399785
"278","AC",5,27,2,1,2,1,0.412220836,2,0.952031672,2,0.810119569
"279","AC",5,28,1,2,1,1,0.317252129,2,0.305831403,1,0.858199537
"280","AC",5,29,2,1,2,1,2.280799627,1,0.317717612,2,2.070824862
"281","AC",5,30,2,2,1,0,0.388142377,2,0.305032909,1,0.529316068
"282","AC",5,31,2,1,2,1,1.293570995,1,1.587177396,2,0.894264698
"283","AC",5,32,2,2,1,0,0.316679269,2,0.258949965,1,0.788042724
"284","AC",5,33,1,2,1,1,0.306327671,2,0.352095306,1,0.775823891
"285","AC",5,34,1,2,1,1,0.305513024,2,0.294807225,2,0.293327272
"286","AC",5,35,1,1,1,1,2.011183262,1,0.353039712,1,1.175861359
"287","AC",5,36,1,1,1,1,0.492678404,2,0.307000279,2,1.023718834
"288","AC",5,37,1,2,1,1,0.41133073,2,0.305971175,1,1.504647017
"289","AC",5,38,2,1,2,1,0.870003343,2,1.530489564,1,0.470020205
"290","AC",5,39,2,1,2,1,0.728966713,2,0.141303822,1,0.552261829
"291","AC",5,40,1,2,1,1,1.070089817,2,0.552008927,1,0.870810688
"292","AC",5,41,2,2,1,0,0.30538249,2,0.33049047,2,0.480733663
"293","AC",5,42,1,1,2,0,1.35142231,1,1.000059247,2,0.506123483
"294","AC",5,43,2,1,2,1,0.799498856,1,0.905968785,1,1.774756312
"295","AC",5,44,2,1,2,1,0.800238073,2,1.105900049,1,0.493560433
"296","AC",5,45,1,2,2,0,1.399404526,1,0.293278784,1,0.870627403
"297","AC",5,46,2,1,2,1,1.598474145,2,0.741273701,1,0.611598909
"298","AC",5,47,1,2,2,0,1.280880928,1,0.836302459,2,1.847218037
"299","AC",5,48,2,1,1,0,0.341673642,2,1.634175539,1,0.398359567
"300","AC",5,49,1,2,2,0,1.975874186,1,1.365296245,1,1.575627685
"301","AC",6,0,1,2,1,1,0.681901991,2,0.318707466,2,0.76249665
"302","AC",6,1,2,2,1,0,0.305822551,2,0.269715428,2,0.587074995
"303","AC",6,2,2,2,2,1,0.4345541,2,0.271049857,2,0.739405274
"304","AC",6,3,2,2,2,1,0.505440891,2,0.63503325,1,0.65807569
"305","AC",6,4,2,1,1,0,0.31710121,2,0.364891261,2,0.716015577
"306","AC",6,5,1,1,1,1,0.293662995,2,0.306905955,2,0.281628191
"307","AC",6,6,2,2,1,0,0.294637829,2,1.65784204,1,0.669941485
"308","AC",6,7,1,1,1,1,0.471092045,2,2.0342834,1,0.728292584
"309","AC",6,8,1,2,2,0,0.623123586,2,0.400050908,1,0.327738076
"310","AC",6,9,1,1,1,1,2.011175156,1,0.341276705,1,1.422667503
"311","AC",6,10,2,1,1,0,0.31793052,2,0.329118311,1,0.869864762
"312","AC",6,11,2,2,1,0,0.245409414,2,0.317942828,1,1.341346383
"313","AC",6,12,2,2,1,0,1.894041777,1,0.294252455,1,1.8453089
"314","AC",6,13,2,2,1,0,0.316583008,2,0.32953912,2,0.270266742
"315","AC",6,14,2,2,1,0,0.24660562,2,0.295209557,2,0.199302226
"316","AC",6,15,1,1,1,1,0.187742501,2,0.306004673,2,1.116920829
"317","AC",6,16,1,2,1,1,0.258313954,2,0.611867666,2,1.469933987
"318","AC",6,17,1,2,1,1,0.493629366,2,0.354159683,1,1.516766906
"319","AC",6,18,1,2,2,0,0.363256931,2,0.283036143,2,0.588452518
"320","AC",6,19,1,1,1,1,0.434802055,2,0.317213267,2,0.588099122
"321","AC",6,20,1,1,1,1,1.340616822,2,1.200996637,1,0.764211416
"322","AC",6,21,1,1,1,1,0.329720855,2,0.306006193,2,0.480869591
"323","AC",6,22,1,2,1,1,0.317205936,2,0.269677311,2,0.775684893
"324","AC",6,23,2,2,2,1,0.41152361,2,0.25778842,2,0.50600338
"325","AC",6,24,1,2,1,1,0.564293563,2,0.317726463,1,0.457583815
"326","AC",6,25,1,1,2,0,0.599520624,2,0.328473836,1,0.459105372
"327","AC",6,26,2,2,2,1,0.388333708,2,0.258355141,2,0.422908902
"328","AC",6,27,2,1,2,1,0.351508945,2,0.448138922,2,0.706062496
"329","AC",6,28,2,1,1,0,0.952457905,2,0.365709007,1,1.057014346
"330","AC",6,29,2,1,1,0,0.234465703,2,0.446942329,1,0.411540926
"331","AC",6,30,2,1,2,1,0.352347493,2,0.306045085,2,0.351337224
"332","AC",6,31,2,2,2,1,0.387667269,2,0.600158155,2,0.704232156
"333","AC",6,32,1,2,2,0,0.318080664,2,0.375551611,1,0.434474021
"334","AC",6,33,1,2,1,1,1.482711792,1,0.858908296,1,1.164002419
"335","AC",6,34,2,2,1,0,1.469044566,1,1.129434943,1,1.364921689
"336","AC",6,35,2,1,1,0,1.04655838,2,2.588171005,1,0.27083233
"337","AC",6,36,2,1,2,1,0.835726142,2,0.384231508,1,0.599278033
"338","AC",6,37,1,1,1,1,0.340666115,2,0.282447487,2,0.434639573
"339","AC",6,38,1,2,1,1,0.564260483,2,0.75300014,1,0.48161763
"340","AC",6,39,1,1,2,0,0.846612453,2,0.258967698,1,0.281661302
"341","AC",6,40,2,2,2,1,0.328023374,2,0.283013433,2,0.259156346
"342","AC",6,41,1,2,1,1,0.292710125,2,0.447138309,2,0.999230385
"343","AC",6,42,1,2,1,1,0.329874843,2,0.282509476,2,0.658086896
"344","AC",6,43,1,1,1,1,0.39878577,2,0.305825621,1,0.552191019
"345","AC",6,44,1,1,1,1,0.387735039,2,1.470629692,1,0.811068237
"346","AC",6,45,2,2,2,1,0.647702575,2,0.38819319,1,0.740470588
"347","AC",6,46,2,1,2,1,0.365141124,2,0.317701042,1,0.56397289
"348","AC",6,47,2,2,2,1,1.282741666,1,1.281414509,2,1.222793937
"349","AC",6,48,1,2,1,1,0.294592023,2,0.316810161,2,1.1169312
"350","AC",6,49,2,1,1,0,0.528916836,2,1.188256145,1,0.63466984
"351","AC",7,0,1,1,2,0,1.564306259,1,1.575532556,1,1.928997755
"352","AC",7,1,1,1,1,1,1.622924209,2,0.505999863,1,0.952218056
"353","AC",7,2,2,1,2,1,2.364941359,1,0.588373959,1,1.799212456
"354","AC",7,3,2,1,1,0,1.599681854,2,1.071202874,1,0.692210853
"355","AC",7,4,1,1,1,1,0.387340397,2,0.236813456,2,1.116892338
"356","AC",7,5,2,2,2,1,0.587642491,2,0.975605845,1,0.470864117
"357","AC",7,6,1,2,1,1,0.317201704,2,0.294234335,2,0.587593555
"358","AC",7,7,2,2,2,1,0.398649871,2,0.294197768,1,0.552257597
"359","AC",7,8,2,2,1,0,0.375045329,2,0.341258228,1,0.364980191
"360","AC",7,9,1,2,1,1,0.271040231,2,0.282511771,2,0.881732821
"361","AC",7,10,2,1,2,1,2.233746052,1,0.68241024,1,2.529433966
"362","AC",7,11,1,1,1,1,1.552371979,1,1.400041699,2,1.763954997
"363","AC",7,12,1,1,1,1,0.399467617,2,0.282485604,2,1.658101559
"364","AC",7,13,1,2,1,1,0.246799663,2,0.305413693,1,0.65866363
"365","AC",7,14,1,1,1,1,1.600389123,1,0.68145889,1,3.646178007
"366","AC",7,15,2,1,2,1,0.459287852,2,0.199029639,2,1.222822428
"367","AC",7,16,2,1,2,1,0.611288965,2,0.128406212,1,0.482635587
"368","AC",7,17,2,1,2,1,1.187867641,1,0.599915206,2,0.599336565
"369","AC",7,18,2,2,2,1,1.375009894,1,0.576512814,2,1.694279909
"370","AC",7,19,1,1,1,1,0.327982932,2,0.247201994,1,0.528733552
"371","AC",7,20,1,2,1,1,1.482340336,1,0.588766277,1,0.681672156
"372","AC",7,21,2,2,2,1,0.269201845,2,0.247082636,2,0.506195843
"373","AC",7,22,2,1,2,1,0.387749672,2,0.25887683,2,0.882632613
"374","AC",7,23,1,2,2,0,0.234876499,2,0.305927277,1,0.340510935
"375","AC",7,24,2,1,2,1,0.340455115,2,0.270699501,1,0.81034714
"376","AC",7,25,1,2,1,1,0.293690711,2,0.294196606,2,0.304745704
"377","AC",7,26,2,2,2,1,0.399662048,2,0.235238403,1,0.576775789
"378","AC",7,27,2,2,2,1,0.447449386,2,0.411921322,1,0.292547643
"379","AC",7,28,1,1,2,0,1.363215327,1,0.305957705,1,1.258014441
"380","AC",7,29,1,2,1,1,0.28287676,2,0.328546584,2,0.540456533
"381","AC",7,30,1,2,1,1,0.30525738,2,0.282485217,2,0.470111817
"382","AC",7,31,1,1,1,1,0.351548612,2,0.283374965,2,0.469938576
"383","AC",7,32,2,2,2,1,1.399503469,1,0.306946754,1,0.599330008
"384","AC",7,33,1,2,1,1,0.433724791,2,0.330569386,1,0.988483012
"385","AC",7,34,2,1,1,0,0.846478522,2,0.353063583,1,0.328803778
"386","AC",7,35,2,2,2,1,0.317192465,2,0.258912235,2,0.458221793
"387","AC",7,36,1,1,1,1,0.47049877,2,0.011816514,1,0.576343
"388","AC",7,37,2,2,2,1,1.846429229,1,0.72954154,2,1.223742247
"389","AC",7,38,2,1,2,1,0.340803534,2,0.259838939,2,0.364098936
"390","AC",7,39,1,2,1,1,0.340822786,2,0.341216654,2,0.280663371
"391","AC",7,40,1,2,1,1,0.235757008,2,0.281460345,2,0.198429421
"392","AC",7,41,2,2,1,0,1.599178672,1,0.541234612,1,0.387663811
"393","AC",7,42,2,2,1,0,0.17508553,2,1.118570566,1,0.65813154
"394","AC",7,43,2,1,2,1,0.870119989,1,0.36475265,1,1.646277666
"395","AC",7,44,1,1,1,1,0.328729481,2,0.318871081,2,0.222878262
"396","AC",7,45,1,2,1,1,0.306400061,2,0.281502694,2,0.76400429
"397","AC",7,46,1,2,1,1,0.42261824,2,1.000443935,1,0.752275944
"398","AC",7,47,2,2,2,1,0.328898102,2,1.164751649,1,0.470068336
"399","AC",7,48,1,1,2,0,1.094577551,1,0.293202162,1,0.822917461
"400","AC",7,49,2,1,2,1,0.577216625,2,0.598930359,1,0.552182138
"401","AC",8,0,2,1,2,1,0.929629505,1,1.082007527,1,0.799054563
"402","AC",8,1,1,1,1,1,0.799517751,2,0.494193375,2,0.999306977
"403","AC",8,2,1,2,1,1,0.882868588,2,0.341182381,1,0.37537837
"404","AC",8,3,2,1,2,1,0.647806883,2,0.292960376,1,0.481305778
"405","AC",8,4,1,2,1,1,0.352005988,2,0.260340601,2,0.833502352
"406","AC",8,5,2,1,1,0,0.270352215,2,0.294064164,1,0.351219803
"407","AC",8,6,1,1,1,1,0.304416537,2,0.270897001,1,0.623553276
"408","AC",8,7,1,1,1,1,0.986783206,2,0.411787719,2,0.799277902
"409","AC",8,8,2,2,1,0,1.092632174,2,0.717698455,1,0.612092495
"410","AC",8,9,2,1,1,0,1.552426577,1,0.435230553,1,1.152191281
"411","AC",8,10,1,2,1,1,0.375966638,2,0.530505359,1,0.258239657
"412","AC",8,11,2,1,2,1,0.481920242,2,0.059849493,2,0.892496347
"413","AC",8,12,1,1,2,0,1.245623469,1,2.129355669,2,1.093357444
"414","AC",8,13,1,1,2,0,0.434848249,2,0.695142627,1,1.058112741
"415","AC",8,14,1,1,1,1,0.63487196,2,1.353934884,1,1.599112868
"416","AC",8,15,2,2,1,0,0.410589963,2,1.023548365,1,0.49421224
"417","AC",8,16,2,1,1,0,1.175927162,1,1.259790063,1,1.387587547
"418","AC",8,17,2,2,2,1,1.129858017,1,0.293235272,1,1.399428725
"419","AC",8,18,2,1,2,1,0.517678201,2,0.224088326,2,0.705205858
"420","AC",8,19,1,2,1,1,1.270138979,1,0.388344496,1,1.512652755
"421","AC",8,20,2,2,2,1,0.5058074,2,0.35310632,2,0.976246059
"422","AC",8,21,1,2,1,1,0.328000665,2,0.305991948,2,0.729628921
"423","AC",8,22,2,2,1,0,0.305324733,2,0.647179365,1,0.352326304
"424","AC",8,23,1,1,1,1,0.257437676,2,0.329495609,1,0.517900348
"425","AC",8,24,2,2,1,0,1.810640097,1,0.352808714,2,1.435009956
"426","AC",8,25,1,2,1,1,0.294093817,2,0.281451851,2,0.317507774
"427","AC",8,26,1,2,1,1,0.269181818,2,0.352963477,2,0.294416845
"428","AC",8,27,1,1,1,1,0.270583987,2,0.235881746,1,0.399360985
"429","AC",8,28,2,2,2,1,0.795347393,1,0.353066653,1,1.215162396
"430","AC",8,29,2,2,2,1,0.270065397,2,0.294223964,2,0.363169134
"431","AC",8,30,1,2,2,0,0.351309121,2,0.658909261,1,0.211341262
"432","AC",8,31,2,1,2,1,1.246451974,1,0.38832292,1,0.774864435
"433","AC",8,32,1,1,2,0,0.340068966,2,0.164882183,1,0.435133159
"434","AC",8,33,1,1,2,0,0.281784892,2,0.541241884,2,0.374931365
"435","AC",8,34,1,2,1,1,1.752357125,1,0.32950756,1,0.787533343
"436","AC",8,35,1,2,1,1,0.424005777,2,0.388366044,2,1.199204087
"437","AC",8,36,2,2,2,1,0.375937015,2,0.506004512,1,0.469982862
"438","AC",8,37,2,1,1,0,1.446748257,1,0.341259778,1,0.998107314
"439","AC",8,38,2,2,2,1,0.493687481,2,0.470601559,1,0.433694392
"440","AC",8,39,2,1,2,1,0.411308765,2,0.129518494,2,0.727775514
"441","AC",8,40,2,2,2,1,0.422080398,2,0.330471605,2,0.682178795
"442","AC",8,41,2,1,2,1,1.469529748,1,1.01184082,1,2.186980486
"443","AC",8,42,1,1,1,1,0.564237356,2,0.317786127,2,1.481532216
"444","AC",8,43,2,2,2,1,0.845513701,1,0.341375291,1,0.788496673
"445","AC",8,44,1,2,2,0,0.72899133,2,0.999961495,1,0.598303199
"446","AC",8,45,2,1,1,0,0.328884631,2,0.28253141,2,1.151260734
"447","AC",8,46,2,1,1,0,0.257284462,2,0.353696913,1,0.753273487
"448","AC",8,47,1,2,1,1,0.505387366,2,0.540336013,2,2.105053425
"449","AC",8,48,1,2,2,0,0.718083441,1,0.304814607,1,1.328801036
"450","AC",8,49,1,2,1,1,0.304996729,2,0.317190915,2,0.38865903
"451","AC",9,0,2,1,1,0,0.822798908,1,1.446617365,1,0.317640215
"452","AC",9,1,1,1,1,1,0.234620854,2,0.365548462,2,0.564045668
"453","AC",9,2,1,2,2,0,0.281864583,2,0.695197701,1,0.469937801
"454","AC",9,3,2,1,2,1,1.118089676,1,0.293274522,2,1.02277565
"455","AC",9,4,1,1,2,0,1.140467167,1,1.399936199,1,1.928647041
"456","AC",9,5,1,1,1,1,0.952408254,1,1.752835393,1,0.422948956
"457","AC",9,6,2,2,2,1,0.293694973,2,0.411733419,2,0.822840095
"458","AC",9,7,1,2,1,1,0.282704264,2,0.258029431,1,0.704313815
"459","AC",9,8,2,1,2,1,0.224223077,2,0.304888546,2,0.469575137
"460","AC",9,9,2,2,2,1,1.081759214,1,0.282505989,2,0.952127934
"461","AC",9,10,2,2,2,1,0.199965969,2,0.294323295,1,0.539575219
"462","AC",9,11,2,1,2,1,0.363746643,2,1.200084567,1,0.517425597
"463","AC",9,12,1,2,1,1,1.528273821,1,0.282485217,1,0.52879864
"464","AC",9,13,1,1,1,1,0.329000503,2,0.270676017,1,0.810899973
"465","AC",9,14,2,2,1,0,0.222087085,2,0.341843426,1,0.541454434
"466","AC",9,15,1,1,1,1,0.317204028,2,0.270552814,2,1.058273315
"467","AC",9,16,1,1,2,0,1.97684443,1,1.716703176,1,0.316959143
"468","AC",9,17,2,2,1,0,1.304823518,1,0.258952677,1,0.858096719
"469","AC",9,18,1,2,1,1,0.269991875,2,0.858963013,1,0.646482885
"470","AC",9,19,2,1,1,0,0.834959567,1,0.589159369,2,0.822108209
"471","AC",9,20,2,1,1,0,0.658083379,2,0.564995825,1,0.505259156
"472","AC",9,21,1,2,2,0,0.892650008,1,1.647099257,2,1.306094408
"473","AC",9,22,1,1,1,1,0.374939471,2,0.55411911,1,0.976473629
"474","AC",9,23,1,2,1,1,0.352493405,2,0.235419735,1,1.081066251
"475","AC",9,24,1,2,1,1,0.281809539,2,0.329556853,1,0.364052713
"476","AC",9,25,2,2,2,1,0.306297272,2,0.258031756,2,0.505207181
"477","AC",9,26,2,1,2,1,0.339733243,2,0.235431299,1,2.340292931
"478","AC",9,27,1,1,1,1,0.234880358,2,0.27167663,2,1.057153702
"479","AC",9,28,2,2,1,0,0.446538866,2,0.046730131,1,1.470280051
"480","AC",9,29,2,2,2,1,1.165063143,1,0.270704508,1,0.364215195
"481","AC",9,30,2,2,2,1,0.271076411,2,0.187358275,2,0.422888517
"482","AC",9,31,1,2,1,1,0.327978313,2,0.341244757,2,0.353298813
"483","AC",9,32,2,1,2,1,0.705462635,1,0.059944205,2,0.527626693
"484","AC",9,33,1,2,2,0,0.999498725,1,0.575593054,1,0.729622722
"485","AC",9,34,2,2,1,0,0.364167064,2,0.305896103,1,0.422905058
"486","AC",9,35,1,1,1,1,0.257848471,2,0.354022235,1,0.516483545
"487","AC",9,36,2,2,2,1,1.233760357,1,0.318775207,2,0.670960963
"488","AC",9,37,1,1,1,1,0.458350748,2,0.32952258,2,0.774832904
"489","AC",9,38,1,1,1,1,0.292784035,2,0.270664841,2,0.269899845
"490","AC",9,39,2,1,1,0,0.258335114,2,0.259517074,1,1.421854377
"491","AC",9,40,2,2,2,1,0.694635987,1,0.740208805,1,1.033655047
"492","AC",9,41,1,1,1,1,0.528638422,2,0.4931916,1,0.693551421
"493","AC",9,42,1,1,1,1,0.246513605,2,0.482275605,1,0.458055854
"494","AC",9,43,2,2,1,0,0.305237353,2,0.388357192,1,0.435708731
"495","AC",9,44,1,2,2,0,0.575791299,1,0.3189165,1,0.540458798
"496","AC",9,45,2,2,2,1,0.527917743,1,0.3412925,1,0.506112695
"497","AC",9,46,2,1,2,1,0.271107972,2,0.387344629,1,0.457155317
"498","AC",9,47,2,1,1,0,0.304789215,2,0.48288855,2,0.270478517
"499","AC",9,48,1,1,1,1,0.26999262,2,0.328652471,2,0.270876974
"500","AC",9,49,1,1,1,1,0.364044249,2,0.128400832,2,0.305458724
"501","AC",10,0,1,1,2,0,1.198693514,2,0.764805496,1,1.186802745
"502","AC",10,1,2,1,1,0,0.423117191,2,1.164695501,1,0.468852103
"503","AC",10,2,2,2,2,1,0.575016677,2,0.283366859,1,0.62379694
"504","AC",10,3,1,2,1,1,0.329351634,2,0.294830322,2,0.245905295
"505","AC",10,4,2,2,1,0,0.468807817,2,0.707186699,1,0.447344661
"506","AC",10,5,1,1,1,1,0.681874275,2,0.36577177,2,0.717025459
"507","AC",10,6,2,2,2,1,0.55241394,2,0.199726492,2,0.953190923
"508","AC",10,7,1,2,1,1,0.399537295,2,0.271649301,2,0.727779746
"509","AC",10,8,2,1,1,0,0.423099488,2,0.364868551,2,0.352221966
"510","AC",10,9,1,1,2,0,0.270167798,2,0.258949578,2,0.469835788
"511","AC",10,10,2,1,1,0,0.25930804,2,0.340249538,1,0.434052438
"512","AC",10,11,2,2,2,1,1.045585513,1,0.517657399,1,0.552978754
"513","AC",10,12,2,2,2,1,0.246450469,2,0.28248328,2,0.505867839
"514","AC",10,13,1,1,2,0,0.26922071,2,0.24715656,1,1.082547784
"515","AC",10,14,1,2,1,1,0.247546181,2,0.281516552,2,0.328595489
"516","AC",10,15,1,2,2,0,0.552534044,2,0.459485352,1,0.740437865
"517","AC",10,16,1,2,1,1,0.327867448,2,0.29425782,2,0.399321705
"518","AC",10,17,2,2,2,1,0.753061712,1,1.847401381,2,0.469699502
"519","AC",10,18,2,2,1,0,0.247529626,2,0.269751608,1,0.446551561
"520","AC",10,19,1,1,1,1,0.247006789,2,0.247163489,1,0.328341395
"521","AC",10,20,2,1,2,1,0.928894937,2,1.010860562,2,1.129629016
"522","AC",10,21,2,1,1,0,1.517092586,1,0.516809642,1,0.77574265
"523","AC",10,22,1,2,1,1,1.564183116,2,1.129498839,2,0.399381369
"524","AC",10,23,1,2,1,1,0.410327792,2,0.282279998,1,0.211183414
"525","AC",10,24,2,1,1,0,0.858351588,1,0.223600537,1,0.975528061
"526","AC",10,25,1,1,1,1,0.729856431,2,0.364756137,1,0.304304481
"527","AC",10,26,2,2,1,0,0.694560528,2,0.363460213,1,0.587507367
"528","AC",10,27,2,1,2,1,0.271018654,1,0.35303086,1,0.175881714
"529","AC",10,28,1,1,1,1,0.316916406,2,0.259120911,2,0.505205989
"530","AC",10,29,1,1,1,1,0.234772548,2,0.282535255,2,0.657161355
"531","AC",10,30,2,2,1,0,0.282869071,2,0.517748237,1,0.516983628
"532","AC",10,31,2,2,2,1,0.292771339,2,0.283383042,1,0.600277126
"533","AC",10,32,1,2,2,0,0.71598053,1,0.259202152,2,1.611374855
"534","AC",10,33,1,2,1,1,0.528836727,1,0.600172043,1,0.446388334
"535","AC",10,34,1,1,1,1,0.223046124,2,0.329568774,2,1.092435002
"536","AC",10,35,2,2,2,1,0.258445233,2,0.27066794,2,0.786804974
"537","AC",10,36,2,1,2,1,0.328921974,2,0.564827979,1,0.399360597
"538","AC",10,37,1,1,2,0,2.081764221,1,1.51668644,2,1.529619813
"539","AC",10,38,2,1,2,1,1.106291652,2,1.340148687,1,0.574801862
"540","AC",10,39,1,1,1,1,0.869187117,2,0.235354289,2,0.43554008
"541","AC",10,40,1,2,1,1,2.445482492,1,1.200041771,1,0.400494039
"542","AC",10,41,1,2,2,0,0.292744011,2,0.342198402,2,0.728715301
"543","AC",10,42,2,1,2,1,0.599393904,1,0.529649496,2,1.327697635
"544","AC",10,43,1,1,1,1,0.257403791,2,0.258938044,2,0.458165556
"545","AC",10,44,1,2,1,1,0.258143783,2,0.282667309,1,0.928703606
"546","AC",10,45,2,2,2,1,0.505327702,2,1.317733407,1,0.422960877
"547","AC",10,46,2,1,1,0,0.952263832,1,0.577292085,1,0.634765327
"548","AC",10,47,2,2,1,0,0.776892662,2,2.893031836,1,0.681722581
"549","AC",10,48,1,2,1,1,0.223056138,2,0.36578986,2,0.258175731
"550","AC",10,49,2,1,2,1,0.247475728,2,0.152174771,2,0.399332106
"551","AC",11,0,2,1,1,0,0.929112852,2,1.117624164,1,0.422248244
"552","AC",11,1,1,1,2,0,0.823035657,1,0.730196774,1,0.387614131
"553","AC",11,2,2,2,2,1,0.294396043,2,0.282657683,2,0.704271853
"554","AC",11,3,2,2,1,0,1.152394652,1,0.25895229,2,1.646309614
"555","AC",11,4,1,2,1,1,1.187703967,1,0.341339856,1,0.410121024
"556","AC",11,5,1,1,1,1,0.293133229,2,0.34136796,1,0.35317716
"557","AC",11,6,2,1,2,1,0.352456421,2,0.29425475,2,0.281713665
"558","AC",11,7,1,2,1,1,0.659268081,2,0.353085518,2,0.551275849
"559","AC",11,8,2,2,1,0,0.375044942,2,0.329470605,2,0.882616043
"560","AC",11,9,1,1,2,0,1.21026361,1,0.706893325,2,0.823794484
"561","AC",11,10,1,1,1,1,0.294242054,2,0.259344995,1,0.564093769
"562","AC",11,11,2,1,2,1,0.752441883,2,0.730465531,2,0.705172002
"563","AC",11,12,1,2,1,1,0.29364568,2,0.223652512,1,0.235601842
"564","AC",11,13,1,1,2,0,1.092609406,1,0.647131205,2,1.587507367
"565","AC",11,14,1,1,1,1,0.328016818,2,0.271193832,1,0.434601456
"566","AC",11,15,2,1,1,0,0.481626511,1,0.316778958,1,0.317008048
"567","AC",11,16,2,1,2,1,0.823024094,1,0.517735183,1,2.082521439
"568","AC",11,17,2,1,2,1,0.2103699,2,0.353996456,1,0.764953732
"569","AC",11,18,1,2,1,1,0.281863034,2,0.306942135,2,0.293549418
"570","AC",11,19,2,2,2,1,0.387797803,2,0.341799557,2,1.857090354
"571","AC",11,20,1,1,1,1,0.30426985,2,0.283595562,2,0.305624276
"572","AC",11,21,2,2,2,1,0.329913735,2,0.257980913,1,0.422904283
"573","AC",11,22,2,1,2,1,0.646582961,1,0.258954197,1,0.422965497
"574","AC",11,23,2,2,1,0,0.246283755,2,0.329841733,2,1.469781518
"575","AC",11,24,1,1,2,0,2.234197378,1,0.341285944,1,43.77298355
"576","AC",11,25,2,1,2,1,1.845541835,2,0.318730563,1,0.859029949
"577","AC",11,26,1,2,2,0,0.55150342,2,0.683376193,1,0.435580909
"578","AC",11,27,1,1,2,0,0.329895645,2,0.210887343,1,0.339603871
"579","AC",11,28,1,1,1,1,0.31631735,2,0.258654684,1,0.553224742
"580","AC",11,29,2,1,2,1,0.551511467,1,0.283399582,1,0.799307168
"581","AC",11,30,2,1,1,0,0.587765276,2,1.012188435,1,0.293401599
"582","AC",11,31,1,1,1,1,0.341511965,2,0.564933062,1,0.292532623
"583","AC",11,32,1,1,1,1,0.540585876,2,1.916784644,1,0.622790575
"584","AC",11,33,1,2,2,0,0.305217326,2,0.269887149,2,0.881568074
"585","AC",11,34,1,1,2,0,0.552446246,1,0.388899654,2,1.552194118
"586","AC",11,35,2,2,2,1,0.941090286,2,1.328490019,1,0.411622167
"587","AC",11,36,2,2,2,1,0.223979369,2,0.340296507,2,0.469976693
"588","AC",11,37,2,1,2,1,0.305409461,2,0.211868331,1,0.446490347
"589","AC",11,38,2,1,1,0,0.612239957,1,0.399103791,1,0.916910589
"590","AC",11,39,1,2,1,1,0.318249285,2,0.304858506,2,0.245495275
"591","AC",11,40,2,2,1,0,0.30448544,2,0.329468668,2,0.317000747
"592","AC",11,41,1,2,1,1,0.36326924,2,0.741184771,1,0.269912153
"593","AC",11,42,1,1,1,1,0.552185237,1,0.307130039,1,0.42285192
"594","AC",11,43,2,1,2,1,0.54052043,2,0.729638934,1,0.575832903
"595","AC",11,44,1,1,1,1,0.32889694,2,0.352133423,2,0.211090624
"596","AC",11,45,2,1,2,1,0.375975877,2,0.105086967,2,1.152176261
"597","AC",11,46,2,1,2,1,0.352873385,2,0.140238136,2,0.529368401
"598","AC",11,47,2,2,2,1,0.671053767,1,0.28145957,2,1.22282517
"599","AC",11,48,1,2,1,1,1.047468185,1,0.25796321,1,0.528808236
"600","AC",11,49,1,1,1,1,0.364341855,2,0.353969097,1,0.269812435
"2460","CL",0,0,2,2,1,0,4.799044258,1,4.976232341,1,5.081106804
"2461","CL",0,1,1,1,1,1,2.599424106,1,0.858853995,1,5.328393176
"2462","CL",0,2,2,1,2,1,2.422939816,1,3.90573172,2,5.175559887
"2463","CL",0,3,2,1,2,1,4.116913642,1,2.611708921,1,2.587408797
"2464","CL",0,4,1,1,1,1,0.987862258,2,5.176423459,2,4.751960554
"2465","CL",0,5,1,2,1,1,2.058260082,1,3.988032046,1,3.199180473
"2466","CL",0,6,1,1,1,1,6.834293606,1,3.141141385,1,3.234467167
"2467","CL",0,7,2,1,1,0,3.316961152,1,3.094060376,1,3.610851509
"2468","CL",0,8,1,1,1,1,16.16312916,2,7.328990322,1,6.845964334
"2469","CL",0,9,2,2,2,1,3.940476323,1,4.22334777,1,3.740314081
"2470","CL",0,10,2,1,2,1,1.928804056,2,8.540712795,2,1.928634652
"2471","CL",0,11,2,2,1,0,2.999403624,1,1.988160639,1,3.257941065
"2472","CL",0,12,2,1,1,0,3.116971009,1,3.799898589,1,5.987164625
"2473","CL",0,13,2,1,1,0,3.869869055,1,5.035001018,1,4.999047107
"2474","CL",0,14,1,1,1,1,4.022810146,1,5.635013801,1,2.82273761
"2475","CL",0,15,1,1,1,1,3.152234602,1,3.788113514,2,3.163853739
"2476","CL",0,16,1,2,1,1,5.199161608,1,1.69414246,1,1.799273722
"2477","CL",0,17,1,1,1,1,7.587272119,1,4.870329909,1,2.540271961
"2478","CL",0,18,2,2,1,0,9.834150383,1,5.658513494,1,4.222606631
"2479","CL",0,19,1,1,1,1,1.434701406,2,10.82293204,2,1.293575806
"2480","CL",0,20,1,2,1,1,1.553331026,1,4.692954327,2,2.927592437
"2481","CL",0,21,1,2,2,0,3.799319923,1,4.36450571,1,2.163956921
"2482","CL",0,22,1,1,1,1,1.011256845,1,7.117248599,2,3.846121802
"2483","CL",0,23,1,2,1,1,4.481636112,1,3.576295944,1,1.963934436
"2484","CL",0,24,2,1,1,0,6.95206158,1,3.223404751,1,2.50534371
"2485","CL",0,25,1,1,1,1,0.952482008,2,5.834976994,2,0.834599302
"2486","CL",0,26,2,2,2,1,0.870079654,2,0.635379558,2,0.999343177
"2487","CL",0,27,2,2,1,0,3.17595991,1,5.47026107,1,2.340197501
"2488","CL",0,28,2,2,1,0,1.858901351,1,3.893329093,2,7.128255574
"2489","CL",0,29,2,1,2,1,1.50534833,1,6.305509494,2,1.998601268
"2490","CL",0,30,1,2,1,1,1.705422405,2,0.905940394,2,1.399144437
"2491","CL",0,31,1,2,1,1,3.670536889,1,6.846032865,2,3.399155602
"2492","CL",0,32,2,2,2,1,6.622670465,1,3.493956732,1,3.90496979
"2493","CL",0,33,2,1,1,0,3.128742608,1,2.024054489,1,2.140435667
"2494","CL",0,34,1,1,1,1,3.987530382,1,1.305892961,1,2.599192332
"2495","CL",0,35,2,1,1,0,5.398961943,1,1.35217816,1,1.576622431
"2496","CL",0,36,1,1,1,1,3.799322618,1,4.28225505,2,1.822660994
"2497","CL",0,37,2,1,2,1,3.081731286,1,1.435275067,2,1.869839795
"2498","CL",0,38,1,1,1,1,1.599246618,2,2.447184499,2,1.634552947
"2499","CL",0,39,2,2,1,0,2.552315761,1,3.611655405,2,6.04608923
"2500","CL",0,40,2,1,2,1,3.046401856,1,2.246979136,2,2.858033544
"2501","CL",0,41,1,1,1,1,1.423033373,2,1.717664099,2,1.810978331
"2502","CL",0,42,1,2,1,1,1.564344546,2,1.211649321,2,1.340479326
"2503","CL",0,43,2,2,2,1,2.975833859,1,1.117667872,2,3.163960386
"2504","CL",0,44,2,1,1,0,2.469932658,1,1.600038193,1,1.952219818
"2505","CL",0,45,1,1,1,1,1.128903156,2,1.000044661,2,2.152150285
"2506","CL",0,46,1,2,1,1,3.340483562,1,1.03536639,1,2.246232607
"2507","CL",0,47,2,1,1,0,1.622964611,2,3.199903132,1,2.269858968
"2508","CL",0,48,2,1,2,1,2.07095647,1,3.551842587,1,1.716931815
"2509","CL",0,49,1,1,1,1,1.517245442,1,5.387987309,2,2.528462246
"2511","CL",1,0,2,1,2,1,5.24613674,1,2.635202454,2,2.187079692
"2512","CL",1,1,2,1,1,0,2.28177225,1,2.247001081,2,3.869694262
"2513","CL",1,2,1,2,1,1,1.54097537,2,1.211790234,2,1.669503144
"2514","CL",1,3,1,2,1,1,2.775882215,1,0.611835588,2,2.94031231
"2515","CL",1,4,2,2,2,1,1.928866812,1,3.09400301,1,2.858005054
"2516","CL",1,5,1,2,1,1,1.857759804,2,4.670341305,1,1.952785008
"2517","CL",1,6,2,1,1,0,0.976008267,1,1.082391573,2,4.04608307
"2518","CL",1,7,2,1,1,0,2.046490793,1,2.411710692,1,2.446262406
"2519","CL",1,8,1,1,1,1,1.587689467,2,2.505781848,2,1.72874076
"2520","CL",1,9,1,2,1,1,3.187559796,1,2.423478441,2,1.916899243
"2521","CL",1,10,2,1,2,1,3.022852881,1,2.494006783,1,2.869773958
"2522","CL",1,11,2,1,1,0,2.069350989,2,5.270302881,2,1.870426546
"2523","CL",1,12,1,1,1,1,3.693428271,1,1.294152162,2,3.987393704
"2524","CL",1,13,1,1,1,1,1.917074422,1,3.423384885,1,3.387508744
"2525","CL",1,14,2,1,2,1,7.504638761,1,3.835371626,1,2.046319079
"2526","CL",1,15,1,1,1,1,1.670319745,2,5.564384587,1,2.481261115
"2527","CL",1,16,2,1,2,1,3.04580779,1,3.41164293,2,5.952476233
"2528","CL",1,17,1,1,1,1,2.799205576,1,2.846996923,2,4.740349502
"2529","CL",1,18,1,1,1,1,12.71624419,1,5.140955812,1,1.881616399
"2530","CL",1,19,2,1,2,1,2.669960148,1,2.552900973,2,1.646324932
"2531","CL",1,20,2,1,1,0,1.775935731,1,0.929450868,1,1.528692095
"2532","CL",1,21,2,1,1,0,3.881597534,1,4.093936404,1,2.869808224
"2533","CL",1,22,1,1,1,1,1.258287957,2,2.835238799,2,1.446331323
"2534","CL",1,23,2,1,2,1,2.858201407,1,4.258600968,1,2.375716354
"2535","CL",1,24,1,1,2,0,9.257767812,1,2.482286774,1,1.505132726
"2536","CL",1,25,2,1,2,1,2.870043848,1,8.905335547,2,1.963838184
"2537","CL",1,26,1,1,1,1,2.246449366,1,3.717529731,2,4.657873612
"2538","CL",1,27,2,1,2,1,3.846368591,1,3.141079399,1,4.210875842
"2539","CL",1,28,1,1,2,0,7.563704279,1,10.38760269,1,1.846335096
"2540","CL",1,29,1,1,1,1,3.822811532,1,0.71775265,1,2.105115477
"2541","CL",1,30,1,1,1,1,0.776003493,2,1.270580857,2,2.352141199
"2542","CL",1,31,1,1,2,0,1.717087358,1,1.023600566,2,0.646369977
"2543","CL",1,32,2,1,2,1,4.681625101,1,2.576391426,1,1.140423731
"2544","CL",1,33,2,1,2,1,1.646388458,1,3.964574319,2,2.458072122
"2545","CL",1,34,2,1,1,0,0.470119772,1,4.129194607,2,0.411120475
"2546","CL",1,35,1,1,2,0,4.281619788,2,5.0232864,1,0.564008435
"2547","CL",1,36,2,2,2,1,0.917151038,2,2.788195521,1,0.505130415
"2548","CL",1,37,1,1,1,1,1.093665359,2,6.070300802,1,0.481590296
"2549","CL",1,38,1,1,1,1,0.470601801,2,0.717215565,2,0.399370051
"2550","CL",1,39,2,1,2,1,2.622847568,1,0.576585855,1,0.681690552
"2551","CL",1,40,1,1,1,1,3.515981848,1,4.670477213,1,1.505983977
"2552","CL",1,41,2,1,2,1,1.916792211,2,4.517323213,1,1.212267258
"2553","CL",1,42,1,1,1,1,4.069865744,1,3.811558152,1,1.811022606
"2554","CL",1,43,2,1,2,1,1.352447665,2,4.423307498,2,2.552053186
"2555","CL",1,44,2,1,1,0,2.199424568,1,2.564638692,1,1.681640501
"2556","CL",1,45,2,1,1,0,1.517123394,2,5.48206039,1,2.140401016
"2557","CL",1,46,1,1,1,1,0.587787259,2,2.082303407,2,0.90518501
"2558","CL",1,47,1,2,1,1,0.258357258,2,0.482438467,2,0.340539388
"2559","CL",1,48,1,1,1,1,0.281921248,2,1.235253352,1,0.716984561
"2560","CL",1,49,2,1,1,0,5.763815315,1,1.211854145,1,1.469876832
"2562","CL",2,0,2,1,2,1,1.269658764,2,1.564830425,1,1.599021003
"2563","CL",2,1,1,2,1,1,0.540710485,2,0.40008732,1,0.516960151
"2564","CL",2,2,1,2,1,1,0.54069239,2,0.541291846,1,1.363943215
"2565","CL",2,3,2,1,1,0,1.376031675,2,0.635116983,1,0.422782733
"2566","CL",2,4,2,1,2,1,1.117158122,2,0.682355845,1,0.775795204
"2567","CL",2,5,2,1,1,0,5.340365749,2,0.905965419,1,0.646339947
"2568","CL",2,6,1,2,1,1,0.422992562,2,0.317795463,2,0.481764704
"2569","CL",2,7,2,1,2,1,4.952179007,2,0.482436542,1,1.811101533
"2570","CL",2,8,1,1,1,1,0.658474224,2,0.929475123,2,0.693398625
"2571","CL",2,9,1,2,1,1,0.575996409,2,0.37653411,2,0.858199097
"2572","CL",2,10,1,2,1,1,0.517166515,2,0.411856994,2,0.799294898
"2573","CL",2,11,2,2,2,1,0.83478834,2,0.388335355,2,0.79917054
"2574","CL",2,12,1,2,1,1,0.623081268,2,0.752969658,2,1.022907167
"2575","CL",2,13,2,2,1,0,0.623054702,2,0.353022481,2,0.834489575
"2576","CL",2,14,2,2,2,1,1.517112229,2,0.400074614,1,0.858123251
"2577","CL",2,15,1,2,1,1,0.599544613,2,0.329498532,2,0.7287269
"2578","CL",2,16,1,2,1,1,0.481872121,2,0.305958027,2,1.046392616
"2579","CL",2,17,2,2,1,0,1.775926106,2,0.447121743,1,0.399349646
"2580","CL",2,18,1,1,1,1,0.587778789,2,0.564786535,2,0.705180235
"2581","CL",2,19,2,1,1,0,1.16417291,2,0.411903195,1,0.575799285
"2582","CL",2,20,1,1,1,1,0.752476849,2,0.882379099,2,4.693161846
"2583","CL",2,21,1,1,1,1,2.246465921,1,1.635260975,1,0.446401394
"2584","CL",2,22,1,1,1,1,0.493664897,2,1.564696828,1,0.4229094
"2585","CL",2,23,2,1,1,0,0.176003801,2,1.235354224,1,0.246400855
"2586","CL",2,24,1,1,1,1,0.587810359,2,0.635390338,2,0.681588525
"2587","CL",2,25,2,1,1,0,7.034558645,1,0.846862171,1,0.999374748
"2588","CL",2,26,2,1,1,0,1.022860967,2,2.529516781,1,0.481659982
"2589","CL",2,27,2,1,2,1,2.634681539,1,1.258754201,1,0.752238914
"2590","CL",2,28,2,1,2,1,1.799448515,1,2.070537582,1,0.505251308
"2591","CL",2,29,1,1,1,1,0.799545537,1,0.964751422,2,0.587533539
"2592","CL",2,30,2,2,1,0,0.446614303,2,0.376576461,1,0.552170229
"2593","CL",2,31,2,1,1,0,0.811290187,1,0.494173106,1,0.540517211
"2594","CL",2,32,1,1,1,1,0.481869811,2,1.741163408,1,0.517007122
"2595","CL",2,33,1,1,1,1,1.270084197,1,0.87065216,1,2.434507362
"2596","CL",2,34,1,1,1,1,1.281893143,2,0.353032491,2,1.269792747
"2597","CL",2,35,2,1,1,0,1.375957754,2,0.717604423,1,1.90496748
"2598","CL",2,36,1,2,1,1,1.411228662,2,1.0471249,1,2.033863707
"2599","CL",2,37,2,1,1,0,1.5171361,2,2.082296091,1,2.281609392
"2600","CL",2,38,2,1,2,1,6.951983423,1,2.470898257,1,1.399306525
"2601","CL",2,39,1,1,2,0,2.375829546,1,2.294129446,2,3.340280278
"2602","CL",2,40,2,1,1,0,0.834815676,2,0.541272981,1,0.222859581
"2603","CL",2,41,2,1,1,0,3.763932357,1,3.988126758,1,1.116852811
"2604","CL",2,42,2,1,1,0,2.081909159,2,7.740716414,1,1.410862135
"2605","CL",2,43,1,1,1,1,1.070074033,2,0.647135757,2,1.081661214
"2606","CL",2,44,1,1,1,1,0.752488014,2,0.305978433,2,0.740437284
"2607","CL",2,45,1,2,1,1,0.905397919,2,0.423605109,2,1.364004816
"2608","CL",2,46,2,1,2,1,1.023019975,2,0.894171874,1,0.928718199
"2609","CL",2,47,1,1,1,1,0.987743676,2,0.494196592,1,1.22282339
"2610","CL",2,48,2,1,1,0,3.905154979,1,2.764461742,1,0.869919106
"2611","CL",2,49,1,1,1,1,1.270042231,2,0.529497531,1,2.069826473
"2613","CL",3,0,2,1,1,0,1.740435359,2,1.788151245,1,1.893132739
"2614","CL",3,1,1,1,1,1,1.152412475,2,0.553027255,2,2.105112012
"2615","CL",3,2,2,2,1,0,1.16417522,2,2.152887189,1,2.246269953
"2616","CL",3,3,2,2,1,0,1.505289809,2,0.870677186,1,2.422777728
"2617","CL",3,4,2,1,2,1,2.058154205,2,2.917658093,1,2.058054874
"2618","CL",3,5,1,1,1,1,2.270008351,1,4.435103738,1,2.046288279
"2619","CL",3,6,1,1,1,1,2.163961926,1,1.800144224,1,2.058015988
"2620","CL",3,7,2,1,1,0,1.62293535,2,3.976342453,1,1.928646203
"2621","CL",3,8,1,1,1,1,1.364170754,1,0.905879948,2,2.63447094
"2622","CL",3,9,1,1,2,0,11.23421229,1,1.847022719,1,4.375340587
"2623","CL",3,10,2,1,1,0,1.16417599,2,2.188244725,1,1.093392388
"2624","CL",3,11,2,1,2,1,3.305196483,2,3.211673577,2,3.257951846
"2625","CL",3,12,2,1,1,0,1.246544848,2,2.988159869,1,2.140346345
"2626","CL",3,13,1,1,1,1,1.034787724,2,1.611748576,1,2.846238459
"2627","CL",3,14,1,1,1,1,3.752230059,1,2.223509473,1,7.751738019
"2628","CL",3,15,1,1,1,1,0.870122775,2,1.376467504,2,1.269882453
"2629","CL",3,16,1,2,1,1,0.952443507,2,0.941234403,2,1.069884994
"2630","CL",3,17,2,2,2,1,0.858318065,2,0.329513547,2,0.987553482
"2631","CL",3,18,1,2,1,1,0.823038686,2,0.470676493,1,0.869928731
"2632","CL",3,19,2,2,2,1,1.034805435,2,0.882321348,1,1.069975856
"2633","CL",3,20,1,1,1,1,0.834840316,2,0.565691687,2,1.081598843
"2634","CL",3,21,2,2,2,1,1.823009425,2,2.741097956,1,1.399241844
"2635","CL",3,22,1,1,1,1,0.799513197,2,2.470521335,2,2.575690328
"2636","CL",3,23,2,1,2,1,1.081857568,2,0.600089784,1,1.810986416
"2637","CL",3,24,1,1,1,1,0.834833001,2,1.541181734,1,1.740427658
"2638","CL",3,25,2,1,1,0,0.411281408,1,0.658899657,1,5.316735923
"2639","CL",3,26,1,1,1,1,1.975882754,1,2.28226737,1,1.611100609
"2640","CL",3,27,2,1,2,1,1.999519896,2,0.611829428,1,1.305026309
"2641","CL",3,28,1,1,1,1,1.293622392,2,1.482364161,2,0.940463233
"2642","CL",3,29,2,1,2,1,1.375849952,2,0.882462646,1,1.740432664
"2643","CL",3,30,2,1,1,0,2.26997447,2,2.105827356,1,1.411032309
"2644","CL",3,31,2,1,2,1,2.952156676,2,1.458962644,1,2.258048867
"2645","CL",3,32,2,1,1,0,1.199244,2,0.305951482,2,1.093641488
"2646","CL",3,33,2,2,2,1,2.069990486,2,1.64704836,1,2.446287432
"2647","CL",3,34,1,1,1,1,1.022996104,2,1.094172413,1,0.799330318
"2648","CL",3,35,1,1,1,1,1.305664267,1,3.117539664,1,1.540111413
"2649","CL",3,36,1,1,1,1,2.352349488,1,1.164750036,1,2.528594304
"2650","CL",3,37,2,1,1,0,1.305460213,2,0.458882177,1,1.31681408
"2651","CL",3,38,1,1,1,1,0.952461602,2,0.894180344,2,1.434514677
"2652","CL",3,39,1,1,1,1,1.094448078,1,2.646166694,2,1.175705035
"2653","CL",3,40,1,1,1,1,0.893614384,2,1.400017248,1,0.940480173
"2654","CL",3,41,2,1,2,1,3.587543164,2,0.882439545,1,3.328519458
"2655","CL",3,42,1,1,1,1,3.305080981,1,1.706000686,1,2.234499123
"2656","CL",3,43,1,1,1,1,4.187440059,1,1.388276834,1,1.516909715
"2657","CL",3,44,2,1,2,1,6.352067663,1,2.682265368,1,1.328681161
"2658","CL",3,45,2,1,1,0,4.681576205,1,1.894096028,1,3.587342575
"2659","CL",3,46,1,1,1,1,1.634717345,2,0.753016629,1,2.727914535
"2660","CL",3,47,2,1,1,0,2.164128249,1,1.352985135,2,1.458042861
"2661","CL",3,48,2,1,2,1,4.046315999,1,1.341150009,1,3.752075671
"2662","CL",3,49,1,1,1,1,2.858234518,1,1.01178546,1,3.175560272
"2664","CL",4,0,1,1,1,1,3.175559502,1,2.482304485,1,4.375288226
"2665","CL",4,1,2,1,1,0,7.752003675,1,2.446950415,1,6.163647375
"2666","CL",4,2,2,1,1,0,4.269861278,2,1.000056596,1,1.575722283
"2667","CL",4,3,1,1,1,1,1.493445442,2,0.42368365,2,1.281628258
"2668","CL",4,4,1,2,1,1,1.281806131,2,0.364794851,2,1.587437672
"2669","CL",4,5,1,2,1,1,1.411230587,2,0.78813931,2,1.575599081
"2670","CL",4,6,1,2,2,0,2.458183004,2,0.800095713,1,1.469852962
"2671","CL",4,7,2,2,1,0,1.128934342,2,0.435381714,2,1.434565498
"2672","CL",4,8,2,1,2,1,1.705362729,2,1.611754736,1,2.140337875
"2673","CL",4,9,2,1,2,1,1.223003573,2,0.411856609,1,1.105163603
"2674","CL",4,10,1,1,1,1,0.893537382,2,0.270788376,2,1.058075279
"2675","CL",4,11,2,2,1,0,1.752370587,2,0.329558978,1,2.822667154
"2676","CL",4,12,1,1,1,1,1.340731891,2,0.694127829,1,1.681556569
"2677","CL",4,13,2,1,2,1,1.117138102,2,0.600060138,1,1.234484107
"2678","CL",4,14,2,1,1,0,0.917102142,2,0.211916902,2,0.940504814
"2679","CL",4,15,1,2,1,1,0.870289098,2,0.247151234,2,0.822614408
"2680","CL",4,16,1,2,1,1,0.928910703,2,0.270706754,2,1.775702802
"2681","CL",4,17,1,1,1,1,0.83479373,2,0.211862616,1,0.740502735
"2682","CL",4,18,2,1,1,0,0.999439814,2,1.211737873,1,1.975731832
"2683","CL",4,19,2,1,2,1,2.528812218,1,0.635370317,1,0.90522274
"2684","CL",4,20,1,1,1,1,0.987874193,2,1.305957257,1,1.234323944
"2685","CL",4,21,1,1,1,1,3.764021294,1,1.494113815,1,1.316919187
"2686","CL",4,22,2,1,2,1,6.234466782,2,0.129543424,1,1.140364055
"2687","CL",4,23,1,1,1,1,1.140796034,2,0.635313336,2,1.834397943
"2688","CL",4,24,2,1,2,1,2.411184772,1,2.070555292,1,1.905126488
"2689","CL",4,25,2,1,1,0,1.41059417,1,1.823488375,1,1.741072546
"2690","CL",4,26,2,1,1,0,0.834797195,2,0.329494682,2,0.975816533
"2691","CL",4,27,2,2,1,0,1.387703943,2,0.576537344,1,1.681619711
"2692","CL",4,28,1,1,1,1,1.32888175,1,0.729466499,1,1.022839791
"2693","CL",4,29,1,1,1,1,4.505185857,1,2.070539122,1,1.952134346
"2694","CL",4,30,2,1,1,0,0.787312314,2,0.565150367,2,0.846436738
"2695","CL",4,31,1,1,1,1,2.77586643,1,0.3765318,1,1.222852265
"2696","CL",4,32,1,1,1,1,1.646880112,1,2.317605655,1,2.034409262
"2697","CL",4,33,1,1,1,1,4.822763406,1,4.141000857,1,1.469834481
"2698","CL",4,34,2,1,1,0,1.152879104,2,4.046900056,1,1.481110192
"2699","CL",4,35,1,1,2,0,2.081745531,1,2.552874022,1,0.928756315
"2700","CL",4,36,2,1,1,0,3.058211187,1,0.788262897,1,2.116918648
"2701","CL",4,37,2,1,2,1,0.90547723,2,3.588073704,1,2.293172318
"2702","CL",4,38,2,1,2,1,1.575905162,1,1.058868394,1,0.787582974
"2703","CL",4,39,1,1,1,1,2.022878677,1,1.611795547,2,1.10524869
"2704","CL",4,40,1,1,1,1,1.140643186,1,2.14116102,1,0.987790647
"2705","CL",4,41,2,1,2,1,0.987774862,1,1.317682656,2,0.952204802
"2706","CL",4,42,1,1,1,1,2.799314918,1,3.341091873,1,2.999181089
"2707","CL",4,43,2,1,2,1,3.858119016,1,4.705632234,1,0.90521196
"2708","CL",4,44,1,1,1,1,1.352432265,1,1.552947174,1,1.505072664
"2709","CL",4,45,1,1,1,1,0.834687853,2,0.882350993,2,0.940596061
"2710","CL",4,46,2,2,2,1,0.858402766,2,1.211774834,1,0.846354346
"2711","CL",4,47,2,2,2,1,0.752437193,2,0.57657238,1,0.822855037
"2712","CL",4,48,1,1,1,1,0.823046386,2,0.447125593,2,1.19926556
"2713","CL",4,49,2,1,2,1,2.858212958,1,1.505881565,1,1.187514366
"2715","CL",5,0,1,1,2,0,3.799074288,1,1.870581704,1,5.669331046
"2716","CL",5,1,1,1,1,1,1.140700167,2,0.505974352,2,0.987505741
"2717","CL",5,2,2,1,2,1,1.481796275,2,0.835383177,1,1.69335127
"2718","CL",5,3,1,1,1,1,0.799523592,2,0.341257041,1,1.587486568
"2719","CL",5,4,1,2,1,1,0.728938269,2,0.24719397,2,0.611055948
"2720","CL",5,5,2,1,2,1,1.481703488,2,0.76484675,2,1.258076203
"2721","CL",5,6,2,2,2,1,1.446584658,2,1.717679499,1,1.716799372
"2722","CL",5,7,2,2,1,0,0.740689078,2,0.105990599,1,1.364107998
"2723","CL",5,8,1,1,1,1,2.505277488,1,0.56479308,1,2.669786125
"2724","CL",5,9,2,1,2,1,1.105437728,2,1.000042351,2,1.034504744
"2725","CL",5,10,1,1,1,1,0.776025438,2,1.082363468,2,0.752265865
"2726","CL",5,11,2,2,1,0,0.787767007,1,0.36477791,1,3.046207812
"2727","CL",5,12,1,1,1,1,1.446622773,2,0.376436703,2,1.728693019
"2728","CL",5,13,1,1,1,1,1.199502725,2,0.788304863,1,1.469832171
"2729","CL",5,14,1,1,1,1,2.222971618,1,1.294150237,1,1.634489421
"2730","CL",5,15,2,1,2,1,1.470076266,2,1.670566149,1,2.328651901
"2731","CL",5,16,2,1,2,1,1.470065101,1,4.305641551,1,1.481649972
"2732","CL",5,17,2,1,2,1,1.023376491,2,3.447017406,2,1.210490449
"2733","CL",5,18,2,1,2,1,1.234842934,1,4.411572089,1,1.693327784
"2734","CL",5,19,1,1,1,1,1.258325688,2,0.964738717,1,3.646153218
"2735","CL",5,20,2,1,2,1,4.434495427,1,2.588256583,1,1.140554249
"2736","CL",5,21,1,1,1,1,1.093614923,1,1.576469583,1,2.281550486
"2737","CL",5,22,2,1,1,0,1.540653504,1,1.97645295,2,0.987823757
"2738","CL",5,23,2,1,1,0,1.375901158,1,2.235276838,1,1.669946288
"2739","CL",5,24,2,1,1,0,6.057939371,1,2.541119363,1,2.599165381
"2740","CL",5,25,1,1,1,1,0.99945252,1,1.270623208,2,0.739547532
"2741","CL",5,26,1,1,2,0,0.752455288,2,0.823614657,2,0.846347031
"2742","CL",5,27,1,1,1,1,1.634753921,1,1.258864698,1,2.034533619
"2743","CL",5,28,2,1,1,0,0.987764466,2,0.494214687,1,0.552353492
"2744","CL",5,29,1,1,1,1,1.093646493,2,0.270663248,2,1.046365665
"2745","CL",5,30,1,1,2,0,1.352414939,2,0.364802936,1,1.116911717
"2746","CL",5,31,1,2,1,1,0.905373663,2,0.294218383,2,1.022884452
"2747","CL",5,32,2,2,2,1,1.800095713,2,0.30531391,1,1.940411642
"2748","CL",5,33,1,2,1,1,1.128871201,2,0.847135526,1,1.740444599
"2749","CL",5,34,2,1,1,0,1.234753613,1,0.964767207,1,2.140420651
"2750","CL",5,35,1,1,1,1,0.998834968,2,0.341262046,2,0.894070617
"2751","CL",5,36,2,2,1,0,0.82300288,2,0.317762353,1,0.952259088
"2752","CL",5,37,2,1,2,1,0.964068034,2,1.964807248,1,2.32863573
"2753","CL",5,38,2,1,2,1,2.51686775,1,2.729365627,1,1.199419178
"2754","CL",5,39,1,1,1,1,1.258327613,1,1.317648776,1,2.246293823
"2755","CL",5,40,2,1,2,1,5.399180242,1,2.15293647,1,1.504021209
"2756","CL",5,41,1,1,1,1,1.917932988,1,4.341079168,2,2.869734688
"2757","CL",5,42,1,1,1,1,3.19924092,1,2.105955178,1,2.199220129
"2758","CL",5,43,2,1,2,1,1.328881365,2,2.61168274,1,2.105136653
"2759","CL",5,44,1,1,1,1,0.999519511,2,1.623524796,1,2.999148364
"2760","CL",5,45,1,1,1,1,1.117112306,1,1.623558292,1,2.222724828
"2761","CL",5,46,2,1,2,1,1.399408552,1,5.058603124,2,1.22283263
"2762","CL",5,47,2,1,1,0,1.234770553,1,1.48234953,2,1.281617477
"2763","CL",5,48,1,1,1,1,1.105352642,2,1.094131987,2,1.152241917
"2764","CL",5,49,2,2,2,1,1.17594451,2,0.435357073,2,1.622789432
"2766","CL",6,0,2,1,1,0,1.116906712,1,1.117509249,1,5.22231749
"2767","CL",6,1,1,1,1,1,0.787344654,2,0.259324012,2,0.658112317
"2768","CL",6,2,2,1,1,0,0.834767935,2,0.270699054,2,0.846383607
"2769","CL",6,3,2,1,2,1,0.834791035,2,0.22363845,1,0.799324928
"2770","CL",6,4,2,2,2,1,1.681798354,2,1.400028799,1,1.622106429
"2771","CL",6,5,1,1,1,1,1.270249365,2,0.741250034,1,4.504668792
"2772","CL",6,6,2,1,1,0,1.02302575,2,0.411825424,1,1.89235387
"2773","CL",6,7,1,1,1,1,1.32886096,2,0.282451403,2,2.022728909
"2774","CL",6,8,1,1,1,1,1.245819109,2,1.21182604,1,1.329379179
"2775","CL",6,9,1,1,1,1,1.175951055,2,0.411855839,2,0.822970925
"2776","CL",6,10,1,2,1,1,1.175946435,2,1.364737485,1,3.562821457
"2777","CL",6,11,2,1,2,1,1.093630708,2,2.023480058,1,1.681560034
"2778","CL",6,12,2,1,2,1,1.105369582,2,0.517767897,2,3.152022463
"2779","CL",6,13,2,2,2,1,6.89318587,2,1.01180702,1,1.140447602
"2780","CL",6,14,1,1,1,1,0.87010237,2,1.129398276,2,0.952252543
"2781","CL",6,15,1,1,1,1,1.152424411,2,0.588313949,2,1.069882299
"2782","CL",6,16,1,2,1,1,0.952448897,2,0.764812484,2,1.128627106
"2783","CL",6,17,2,2,1,0,0.928750924,2,2.977475145,1,1.046320619
"2784","CL",6,18,2,2,2,1,1.963879765,2,1.059125194,1,1.305115246
"2785","CL",6,19,1,1,1,1,1.128861576,2,0.835364311,1,1.540570342
"2786","CL",6,20,1,1,1,1,0.83475523,2,0.882424145,2,0.858156747
"2787","CL",6,21,1,1,1,1,0.834804896,2,0.682424376,2,0.846338946
"2788","CL",6,22,1,2,1,1,1.387730124,2,0.388330735,2,1.105150898
"2789","CL",6,23,2,2,2,1,0.905364038,2,0.317363485,1,0.916943519
"2790","CL",6,24,2,1,2,1,1.164232586,2,1.599965426,1,0.999251931
"2791","CL",6,25,1,1,1,1,3.281632878,1,2.270579317,1,1.164006587
"2792","CL",6,26,1,1,1,1,2.305321995,1,1.8117418,1,1.752123412
"2793","CL",6,27,2,1,2,1,0.834161163,2,0.70595795,2,1.152825203
"2794","CL",6,28,2,2,1,0,1.234755923,2,0.753034724,1,0.869906016
"2795","CL",6,29,2,1,2,1,1.270062637,2,0.529520246,1,1.999104473
"2796","CL",6,30,1,1,1,1,1.328929106,1,2.047006318,1,1.975700261
"2797","CL",6,31,2,1,2,1,1.25815667,2,1.294131371,2,2.269897854
"2798","CL",6,32,2,1,1,0,1.093557941,2,0.364792541,2,1.563958384
"2799","CL",6,33,1,1,1,1,1.587668677,2,1.399995688,1,1.846328936
"2800","CL",6,34,1,1,1,1,1.458264241,1,4.882128844,1,1.493370751
"2801","CL",6,35,2,1,1,0,1.16417522,1,5.635036901,1,1.058054104
"2802","CL",6,36,1,1,1,1,3.199346027,1,0.717706835,2,1.140472627
"2803","CL",6,37,2,1,2,1,1.423022593,1,0.623528261,1,1.705197176
"2804","CL",6,38,1,1,1,1,6.681474948,1,2.282299326,1,1.787435901
"2805","CL",6,39,2,1,2,1,1.17596684,2,0.37651255,2,0.975761092
"2806","CL",6,40,2,1,1,0,2.693479862,1,1.388220623,1,1.164020062
"2807","CL",6,41,2,2,2,1,0.905375973,2,0.388352681,1,2.01099735
"2808","CL",6,42,1,2,1,1,0.999484475,2,0.446664354,2,1.152346254
"2809","CL",6,43,2,2,2,1,0.929046225,2,0.352928924,1,2.069752552
"2810","CL",6,44,1,1,1,1,1.234774018,2,1.976462576,2,1.410995348
"2811","CL",6,45,1,1,1,1,0.928717429,2,0.423615889,2,2.564055406
"2812","CL",6,46,2,2,2,1,0.917284251,2,0.294082861,1,1.787434361
"2813","CL",6,47,1,2,1,1,1.093478245,2,0.670754803,1,0.858160982
"2814","CL",6,48,2,1,1,0,1.540642339,1,3.552808571,1,1.481628027
"2815","CL",6,49,1,1,1,1,1.928943813,1,2.541127063,1,1.846190718
"2817","CL",7,0,2,1,1,0,3.528528082,2,0.988262281,1,1.093147524
"2818","CL",7,1,1,1,1,1,0.917123317,2,0.282471809,2,0.858143271
"2819","CL",7,2,2,2,2,1,0.975943971,2,0.941280989,1,1.258076973
"2820","CL",7,3,1,2,1,1,0.717036922,2,0.270853057,2,0.740446524
"2821","CL",7,4,1,2,1,1,0.752412167,2,0.282468729,1,1.2699429
"2822","CL",7,5,1,1,1,1,1.046523903,2,0.600070148,2,0.940521369
"2823","CL",7,6,1,1,1,1,0.917119082,2,1.458871782,2,0.952235603
"2824","CL",7,7,2,1,2,1,0.88191632,2,0.823551901,2,0.858102845
"2825","CL",7,8,2,2,2,1,2.023229804,2,0.564958633,1,1.398661252
"2826","CL",7,9,2,2,1,0,1.046504268,2,1.223572229,1,0.975775337
"2827","CL",7,10,1,1,2,0,2.38779211,1,0.52947212,1,0.92853532
"2828","CL",7,11,2,1,1,0,0.881974456,2,0.611867544,1,0.81095292
"2829","CL",7,12,1,1,1,1,0.811273631,2,0.599956186,2,0.975799978
"2830","CL",7,13,2,2,2,1,0.799375749,2,0.329634054,1,0.846359351
"2831","CL",7,14,1,1,1,1,1.470124777,2,0.282488749,2,1.999117563
"2832","CL",7,15,2,1,2,1,0.940746984,2,0.447068997,2,0.822845027
"2833","CL",7,16,2,2,2,1,3.175814762,2,0.788294082,1,0.822803061
"2834","CL",7,17,1,1,1,1,0.764253453,2,0.682410131,1,0.869903321
"2835","CL",7,18,1,1,1,1,0.952431572,1,1.105931693,1,1.716875989
"2836","CL",7,19,2,1,2,1,1.128780339,2,2.329486597,1,0.881612934
"2837","CL",7,20,2,1,2,1,1.599310529,2,0.764838665,1,1.199355652
"2838","CL",7,21,1,1,1,1,0.646565561,2,0.270712914,2,0.846382837
"2839","CL",7,22,2,2,2,1,1.000024255,2,0.305462908,2,0.787598759
"2840","CL",7,23,1,2,1,1,2.281583982,1,1.635423448,1,1.187555561
"2841","CL",7,24,1,1,1,1,1.552104777,2,0.364997365,1,1.599290893
"2842","CL",7,25,2,1,1,0,1.575979853,1,3.246908295,1,2.352085758
"2843","CL",7,26,1,1,1,1,0.799504342,2,0.37655798,2,0.787626865
"2844","CL",7,27,2,1,2,1,1.011224889,2,0.364829501,2,0.963947527
"2845","CL",7,28,2,2,1,0,0.846395542,2,0.31788517,2,0.717010741
"2846","CL",7,29,1,2,1,1,0.799463916,2,0.270706754,1,0.775811374
"2847","CL",7,30,2,1,2,1,1.128896611,1,0.37629964,1,2.163946141
"2848","CL",7,31,2,1,2,1,1.328741607,2,1.141283838,1,1.069907325
"2849","CL",7,32,2,1,1,0,1.634737365,1,2.247014557,1,0.86988715
"2850","CL",7,33,2,1,2,1,2.16417214,1,1.670556139,1,1.363953995
"2851","CL",7,34,2,1,1,0,1.246434736,1,1.199733344,1,0.822932039
"2852","CL",7,35,1,1,1,1,0.917134868,1,0.600085549,2,1.164000042
"2853","CL",7,36,1,1,1,1,0.552462064,1,3.635133538,1,1.97487442
"2854","CL",7,37,1,1,1,1,0.846564945,2,0.294233783,2,0.869929116
"2855","CL",7,38,1,1,1,1,0.811247836,2,0.658877326,1,0.787604919
"2856","CL",7,39,1,2,1,1,0.834832231,2,0.353031721,2,0.775765173
"2857","CL",7,40,1,2,1,1,0.775721282,2,0.353035956,2,0.729173124
"2858","CL",7,41,2,1,2,1,2.858189087,1,1.494149621,1,0.940480558
"2859","CL",7,42,2,1,2,1,0.787756612,1,3.43516688,2,2.79915668
"2860","CL",7,43,1,1,1,1,0.892987207,2,0.376578771,2,0.835223784
"2861","CL",7,44,1,1,1,1,3.340510512,1,1.470620667,1,1.140545009
"2862","CL",7,45,1,1,1,1,1.281815756,1,4.023304495,1,1.811135414
"2863","CL",7,46,2,1,2,1,1.081841398,2,0.517736326,2,1.305288499
"2864","CL",7,47,1,1,1,1,1.458393603,1,0.647166173,1,1.375647438
"2865","CL",7,48,2,1,2,1,2.187652968,1,5.399737733,1,1.411007283
"2866","CL",7,49,2,1,1,0,4.422895155,1,2.435207305,1,1.95210624
"2868","CL",8,0,2,1,2,1,1.51691241,1,2.023502774,2,2.187158619
"2869","CL",8,1,2,1,1,0,2.928983854,1,0.517686275,1,1.928452929
"2870","CL",8,2,1,1,1,1,2.669888922,1,2.600016247,1,2.246189871
"2871","CL",8,3,2,1,2,1,1.705358109,2,4.21158695,1,1.834484184
"2872","CL",8,4,1,1,1,1,2.681762933,1,2.964608584,1,2.175630729
"2873","CL",8,5,1,1,1,1,1.093543311,2,0.800078002,2,1.27020663
"2874","CL",8,6,2,1,1,0,1.976002492,2,0.764764358,1,0.975903545
"2875","CL",8,7,2,1,2,1,1.270068797,2,0.964751037,1,2.092389444
"2876","CL",8,8,1,1,1,1,1.093685379,2,0.623644533,2,0.916836872
"2877","CL",8,9,1,2,1,1,1.046560864,1,0.905948864,1,2.163315114
"2878","CL",8,10,1,1,1,1,1.399418947,1,0.364592722,2,1.105202489
"2879","CL",8,11,1,1,1,1,4.37574831,1,4.482111211,1,4.116702273
"2880","CL",8,12,1,1,1,1,1.328688861,1,1.435568827,2,1.058023688
"2881","CL",8,13,1,2,1,1,0.905429874,2,0.282441393,2,0.916055692
"2882","CL",8,14,1,2,1,1,0.681849175,2,0.294246874,1,1.798275013
"2883","CL",8,15,2,2,2,1,1.257625359,2,0.376628052,2,1.023288325
"2884","CL",8,16,2,2,1,0,1.234636955,2,0.706057282,1,1.399287274
"2885","CL",8,17,2,1,2,1,1.01124953,2,0.329521247,2,1.164036617
"2886","CL",8,18,2,1,1,0,1.0937516,2,1.05890728,1,0.821890594
"2887","CL",8,19,2,1,1,0,1.011271475,2,1.353195734,1,1.375779111
"2888","CL",8,20,2,1,2,1,3.540446755,1,0.788187435,1,0.775727443
"2889","CL",8,21,2,1,2,1,3.352089223,1,4.74103135,1,1.328705802
"2890","CL",8,22,1,1,1,1,1.305386291,1,0.894148004,1,2.199191639
"2891","CL",8,23,2,1,1,0,3.916889618,1,3.505746427,1,2.281551641
"2892","CL",8,24,1,1,1,1,0.717172444,2,0.423593174,2,0.716482896
"2893","CL",8,25,2,1,1,0,1.140794493,1,1.74101518,1,1.869871365
"2894","CL",8,26,1,1,1,1,1.128943582,1,0.882317498,1,1.352178545
"2895","CL",8,27,1,1,1,1,1.470012355,1,2.035288234,1,1.5404533
"2896","CL",8,28,2,1,2,1,1.787716956,1,0.670660861,1,1.305129106
"2897","CL",8,29,1,1,1,1,0.717162049,2,0.305989213,2,0.811029537
"2898","CL",8,30,2,2,2,1,0.964213952,2,0.294233398,2,0.975781113
"2899","CL",8,31,1,2,1,1,0.893583198,2,0.388336125,1,1.458087907
"2900","CL",8,32,2,1,1,0,1.975950901,2,1.294100571,1,1.763913877
"2901","CL",8,33,1,1,1,1,0.987913079,2,0.317730397,2,1.281519301
"2902","CL",8,34,1,1,1,1,1.340671445,1,3.141058609,1,2.728574052
"2903","CL",8,35,1,1,1,1,4.458040551,1,0.541271826,1,7.198854757
"2904","CL",8,36,2,1,1,0,1.811204715,1,0.506002842,1,1.50510847
"2905","CL",8,37,1,2,1,1,0.964173526,2,0.247121974,2,0.893446905
"2906","CL",8,38,2,2,2,1,1.01127263,2,0.317720772,1,1.646381143
"2907","CL",8,39,2,1,1,0,0.870105835,2,0.647125747,1,0.787522528
"2908","CL",8,40,2,1,1,0,3.223226108,1,1.16472809,1,0.916537721
"2909","CL",8,41,1,1,1,1,0.752353646,1,1.164817027,2,0.599451827
"2910","CL",8,42,2,1,2,1,0.587763773,1,1.588222702,2,0.481683853
"2911","CL",8,43,2,2,2,1,1.222974313,2,0.317764663,1,0.646386918
"2912","CL",8,44,1,1,1,1,0.893687535,1,0.435400194,2,0.634570272
"2913","CL",8,45,1,1,1,1,5.222673237,1,0.458888337,1,1.552204494
"2914","CL",8,46,1,1,1,1,1.681820684,1,1.152988831,1,1.575713428
"2915","CL",8,47,2,1,1,0,1.058322454,1,1.611763592,1,1.434567423
"2916","CL",8,48,2,1,2,1,0.740677143,1,0.459857786,2,0.551611583
"2917","CL",8,49,1,1,1,1,2.669972083,1,1.27072947,1,2.599195797
"2919","CL",9,0,2,1,1,0,1.187534771,2,2.176437319,1,2.446008687
"2920","CL",9,1,1,1,1,1,0.964197396,2,0.447172949,2,0.787556023
"2921","CL",9,2,2,2,1,0,0.823080652,1,1.729379873,1,1.081620019
"2922","CL",9,3,2,1,2,1,1.034789264,2,1.070603418,1,0.905162294
"2923","CL",9,4,1,1,1,1,0.952463142,2,0.682407821,2,0.811083438
"2924","CL",9,5,1,2,1,1,1.293577346,2,0.459483944,2,1.858111701
"2925","CL",9,6,1,2,1,1,1.152274643,2,0.517814868,1,0.975815763
"2926","CL",9,7,2,2,2,1,1.175872128,2,0.529573762,1,1.116903247
"2927","CL",9,8,2,1,1,0,0.976014427,1,1.294137917,1,1.610996657
"2928","CL",9,9,1,1,1,1,1.599163071,1,0.929419297,1,1.117236664
"2929","CL",9,10,1,1,1,1,0.823081037,2,0.505950481,2,0.775763633
"2930","CL",9,11,1,1,1,1,0.975979391,1,0.423623974,1,1.363960925
"2931","CL",9,12,1,1,1,1,1.705217966,1,1.694094334,1,1.364108383
"2932","CL",9,13,1,1,1,1,1.058297813,1,0.705952175,2,0.799336478
"2933","CL",9,14,2,1,2,1,0.893599368,1,0.776547508,1,1.034602536
"2934","CL",9,15,2,1,1,0,1.411220192,1,1.141249572,1,1.19977531
"2935","CL",9,16,2,1,1,0,3.375793741,1,1.047071769,1,1.540491031
"2936","CL",9,17,1,1,1,1,2.011190624,1,0.882386799,2,0.869939897
"2937","CL",9,18,2,1,1,0,0.846543385,2,2.152953796,1,0.752270485
"2938","CL",9,19,2,1,1,0,2.446490716,1,0.894146464,1,2.31685951
"2939","CL",9,20,1,1,2,0,1.835632276,1,0.928819456,1,1.728392329
"2940","CL",9,21,2,1,2,1,1.622976546,2,0.694118974,1,0.622856038
"2941","CL",9,22,2,1,1,0,2.058236597,1,1.070623054,1,1.222871516
"2942","CL",9,23,1,1,1,1,2.046456912,1,2.576433392,1,2.058021763
"2943","CL",9,24,2,1,1,0,1.223007423,1,1.458836746,2,1.163996192
"2944","CL",9,25,2,1,1,0,1.470038535,1,1.05889265,2,1.352636704
"2945","CL",9,26,1,1,2,0,1.705319223,1,0.741214228,1,3.093261871
"2946","CL",9,27,1,1,1,1,6.457879233,1,1.941183582,1,1.963969472
"2947","CL",9,28,2,1,1,0,1.880824439,1,2.611644624,1,3.411833509
"2948","CL",9,29,1,1,2,0,1.411234823,1,1.670548054,1,1.140450297
"2949","CL",9,30,1,1,1,1,1.952359575,1,0.964727166,2,1.164011977
"2950","CL",9,31,2,2,1,0,0.928926103,2,0.282471039,2,0.775792509
"2951","CL",9,32,1,2,2,0,1.045956403,1,0.905909208,1,0.823436014
"2952","CL",9,33,1,1,1,1,0.858321145,1,0.553024175,2,0.834721734
"2953","CL",9,34,1,1,1,1,0.399396616,1,0.541373083,1,1.822764946
"2954","CL",9,35,2,1,1,0,1.740636717,1,2.435273527,1,1.858239908
"2955","CL",9,36,2,1,2,1,1.046698697,1,0.399978363,2,0.599313609
"2956","CL",9,37,2,1,2,1,1.564159743,1,1.400006853,1,1.316919572
"2957","CL",9,38,1,1,1,1,0.6928369,2,0.282460644,2,0.5765924
"2958","CL",9,39,2,1,1,0,0.599519973,2,0.494176956,2,0.517034843
"2959","CL",9,40,1,2,1,1,0.681937342,2,0.247121204,2,0.658152357
"2960","CL",9,41,1,2,1,1,0.646700699,1,0.506423655,2,0.646468154
"2961","CL",9,42,2,1,2,1,0.623052392,1,0.411827734,1,0.623037377
"2962","CL",9,43,1,1,1,1,0.646581346,1,0.517738251,2,0.799341098
"2963","CL",9,44,1,1,1,1,0.71719516,2,0.353010546,1,0.599421026
"2964","CL",9,45,2,1,1,0,1.575924412,1,2.623346538,1,1.36397748
"2965","CL",9,46,1,1,2,0,6.963755023,1,2.482312185,1,1.21106719
"2966","CL",9,47,2,1,2,1,0.670148801,1,0.435358613,2,0.328698486
"2967","CL",9,48,2,2,2,1,1.658380282,1,2.505822659,1,2.246194491
"2968","CL",9,49,2,1,1,0,0.787733897,1,1.18829439,1,1.269888999
"2970","CL",10,0,2,1,2,1,0.681790654,2,0.823637372,1,0.646000755
"2971","CL",10,1,1,2,1,1,0.599519588,2,0.294212223,2,1.199316381
"2972","CL",10,2,2,1,2,1,0.881845094,2,0.329509312,2,0.693458302
"2973","CL",10,3,1,2,1,1,0.717128169,2,0.270666328,2,0.787593369
"2974","CL",10,4,1,2,1,1,0.658364111,2,0.305953792,2,0.72874692
"2975","CL",10,5,1,2,1,1,0.634872503,2,0.294211838,2,0.446379834
"2976","CL",10,6,2,2,2,1,0.787764697,2,0.40011658,1,0.70517446
"2977","CL",10,7,1,2,1,1,0.775970767,1,0.964765282,1,0.89343497
"2978","CL",10,8,2,1,2,1,0.811270551,1,0.7302831,1,0.752293585
"2979","CL",10,9,2,1,1,0,3.610966626,1,3.694058913,1,1.269860508
"2980","CL",10,10,2,1,2,1,1.199495409,2,0.470678803,1,1.06988923
"2981","CL",10,11,1,1,1,1,0.893624394,2,0.776549433,2,0.540526836
"2982","CL",10,12,1,1,1,1,0.681939652,1,0.811793391,1,0.893405325
"2983","CL",10,13,1,1,1,1,1.65828942,1,0.294166407,1,1.105153208
"2984","CL",10,14,2,1,1,0,1.140697472,1,0.976489911,1,1.222899621
"2985","CL",10,15,2,1,2,1,0.999526826,2,0.388336125,2,1.38647423
"2986","CL",10,16,1,2,1,1,0.846586121,2,1.023561295,1,0.869885225
"2987","CL",10,17,2,1,1,0,1.564173218,1,0.835361616,1,0.681662061
"2988","CL",10,18,2,1,1,0,1.046516973,1,7.046695617,1,0.76379722
"2989","CL",10,19,1,1,1,1,0.599402931,2,0.28253187,2,0.493455838
"2990","CL",10,20,1,1,1,1,0.752464528,2,0.341278987,2,0.858149431
"2991","CL",10,21,2,1,2,1,2.187672604,1,4.152730106,1,0.928721664
"2992","CL",10,22,2,1,2,1,0.976005187,1,3.352805722,1,0.705217581
"2993","CL",10,23,1,1,1,1,0.811223965,1,1.070667329,1,1.140486103
"2994","CL",10,24,1,1,2,0,1.505320609,1,1.447061682,1,1.869939511
"2995","CL",10,25,2,1,1,0,1.729561211,1,0.905252001,1,2.093304222
"2996","CL",10,26,2,1,1,0,0.575890147,1,0.188447623,2,0.411058874
"2997","CL",10,27,1,1,1,1,0.52890924,2,0.317731552,2,0.91698356
"2998","CL",10,28,2,1,1,0,3.822786891,1,2.63525674,1,1.611005512
"2999","CL",10,29,1,1,1,1,0.975964376,1,0.600077078,1,0.952233678
"3000","CL",10,30,2,1,2,1,1.046584735,1,1.047065609,1,0.72870149
"3001","CL",10,31,1,2,1,1,0.821996086,1,0.270721769,1,0.706213595
"3002","CL",10,32,1,1,1,1,2.364131483,1,1.999716635,1,2.422716897
"3003","CL",10,33,2,1,1,0,0.799411555,1,1.741227704,2,0.540499116
"3004","CL",10,34,2,1,2,1,1.63473159,1,1.035341365,1,0.728718045
"3005","CL",10,35,1,1,1,1,2.752252389,1,2.482383026,1,1.505143891
"3006","CL",10,36,2,1,2,1,2.175884064,1,3.129265063,1,2.058056799
"3007","CL",10,37,2,1,2,1,0.893780707,1,0.823420998,1,0.599341714
"3008","CL",10,38,1,1,2,0,2.305295815,1,1.517645079,1,1.21104717
"3009","CL",10,39,1,1,1,1,0.881873199,1,0.505993602,1,8.63313843
"3010","CL",10,40,2,1,1,0,2.069899625,1,1.352926999,1,0.964131945
"3011","CL",10,41,1,1,1,1,0.658359106,1,2.082323427,2,0.599340174
"3012","CL",10,42,1,1,1,1,0.881915935,1,0.576526564,2,0.787451301
"3013","CL",10,43,2,1,2,1,0.881905925,1,1.105905897,1,0.3757306
"3014","CL",10,44,1,1,1,1,1.388754243,1,2.281311012,2,3.493220213
"3015","CL",10,45,1,1,1,1,1.340600989,1,0.858877095,1,7.457664014
"3016","CL",10,46,2,1,2,1,0.752400232,1,1.517701676,1,0.775785194
"3017","CL",10,47,2,1,1,0,1.364101838,1,1.753002384,1,1.387474864
"3018","CL",10,48,2,1,2,1,1.081803667,1,3.011659563,2,0.611084824
"3019","CL",10,49,1,1,1,1,2.211195783,1,0.752966963,2,1.446372903
"3021","CL",11,0,2,2,2,1,1.10420147,2,0.258937464,2,1.082065087
"3022","CL",11,1,1,2,1,1,0.670168437,2,0.294195283,2,0.646344952
"3023","CL",11,2,1,2,1,1,0.634825917,2,0.376539115,1,0.481698483
"3024","CL",11,3,2,1,1,0,0.646600597,1,0.305934542,2,0.528787962
"3025","CL",11,4,2,1,1,0,0.940659972,1,0.576533494,1,1.352211655
"3026","CL",11,5,1,1,1,1,0.493777704,1,1.599994302,1,0.881537088
"3027","CL",11,6,1,1,1,1,2.199409553,1,1.105921683,1,2.269768106
"3028","CL",11,7,2,1,2,1,0.905352488,2,0.270701749,2,0.928600002
"3029","CL",11,8,2,2,1,0,0.929110136,2,0.305815575,2,0.716970701
"3030","CL",11,9,1,2,1,1,0.775979237,1,0.188346366,1,0.869889846
"3031","CL",11,10,2,1,1,0,1.211365571,1,2.988133303,1,1.187409259
"3032","CL",11,11,1,1,1,1,1.446634708,1,0.870529728,2,1.622797902
"3033","CL",11,12,1,1,1,1,17.62243292,1,3.681563499,1,1.434598609
"3034","CL",11,13,1,1,1,1,0.811274016,2,0.435373243,2,0.858110931
"3035","CL",11,14,2,1,1,0,5.234481027,1,2.129380181,1,1.152234217
"3036","CL",11,15,2,1,2,1,1.775921871,1,2.741086021,1,1.422776958
"3037","CL",11,16,2,1,1,0,1.98766937,1,4.964481147,1,0.846332401
"3038","CL",11,17,1,1,1,1,4.446449905,1,3.176202465,1,0.952271024
"3039","CL",11,18,2,1,1,0,0.717184765,2,0.294185272,2,0.822821542
"3040","CL",11,19,1,2,1,1,0.51691395,2,0.117995513,2,0.740470394
"3041","CL",11,20,1,2,1,1,1.611227661,1,1.952967502,1,0.622810993
"3042","CL",11,21,2,1,2,1,0.858312674,2,4.70569191,2,1.46999888
"3043","CL",11,22,1,1,1,1,1.811178149,1,2.176406518,1,1.7051683
"3044","CL",11,23,2,1,1,0,4.211020604,1,3.458700839,1,1.587486183
"3045","CL",11,24,2,1,2,1,0.940628786,2,0.388353836,2,0.881677231
"3046","CL",11,25,1,2,1,1,0.964234742,1,1.1646919,1,1.234590755
"3047","CL",11,26,1,1,1,1,1.564187078,1,2.988135613,1,1.399231448
"3048","CL",11,27,2,1,1,0,1.222964303,1,3.223449027,1,1.163956151
"3049","CL",11,28,1,1,1,1,1.575950593,1,1.894077547,1,0.422851264
"3050","CL",11,29,2,1,2,1,1.058203101,1,1.917634607,2,0.681699407
"3051","CL",11,30,1,1,1,1,3.022816691,1,2.188233174,1,1.681655901
"3052","CL",11,31,2,1,1,0,1.752278185,1,3.070534887,1,2.587428817
"3053","CL",11,32,1,1,2,0,1.634810132,1,2.541112433,1,1.64621713
"3054","CL",11,33,2,1,1,0,0.693634635,2,0.353016321,2,0.446402164
"3055","CL",11,34,2,2,1,0,0.728340738,1,1.364702834,2,0.658742574
"3056","CL",11,35,2,2,1,0,1.458342012,1,0.341231246,1,1.575733449
"3057","CL",11,36,1,1,1,1,1.869981862,1,4.270330217,1,1.88162333
"3058","CL",11,37,1,1,1,1,0.893634789,1,1.435315492,2,0.599334014
"3059","CL",11,38,1,1,2,0,2.599399466,1,3.517476061,1,0.881760392
"3060","CL",11,39,2,1,1,0,2.505238603,1,2.376398972,1,1.893343338
"3061","CL",11,40,1,1,2,0,4.152228057,1,3.552802411,1,1.422788508
"3062","CL",11,41,2,1,1,0,1.681873045,1,4.493900906,2,0.564027685
"3063","CL",11,42,1,1,1,1,7.269647984,1,6.387843316,1,2.128640966
"3064","CL",11,43,1,1,1,1,2.093688074,1,0.894034042,2,1.211037545
"3065","CL",11,44,2,1,1,0,2.117073421,1,2.61168428,1,1.728687244
"3066","CL",11,45,1,1,1,1,0.646609452,1,0.88241452,1,0.646398083
"3067","CL",11,46,2,1,1,0,1.046553549,1,1.399973743,2,0.928721664
"3068","CL",11,47,1,1,1,1,1.411284873,1,1.904909344,2,0.647248179
"3069","CL",11,48,2,1,2,1,0.681898071,2,0.623601028,2,0.599305524
"3070","CL",11,49,2,2,1,0,0.858313059,1,1.82353958,1,0.916954299
"3072","FW",0,0,2,1,2,1,1.281716824,2,1.058766484,2,1.916746378
"3073","FW",0,1,2,1,2,1,0.882020712,1,0.517594934,1,1.504918694
"3074","FW",0,2,2,2,1,0,0.987743318,2,2.117603779,1,1.222812533
"3075","FW",0,3,1,2,1,1,0.987675965,1,1.658845544,2,0.599377155
"3076","FW",0,4,2,1,2,1,0.740643859,1,0.482531309,1,0.540411949
"3077","FW",0,5,1,2,1,1,0.528911412,2,0.882419229,2,2.222822189
"3078","FW",0,6,1,1,1,1,0.575974941,2,0.529537857,2,1.622781634
"3079","FW",0,7,1,1,1,1,0.681937814,2,0.564821303,1,0.869759083
"3080","FW",0,8,2,2,2,1,2.987529755,2,0.788362265,1,4.599031925
"3081","FW",0,9,1,2,2,0,0.693672001,2,2.976350546,2,0.693432927
"3082","FW",0,10,2,1,2,1,0.505412996,1,0.564829767,2,0.646338999
"3083","FW",0,11,1,2,2,0,7.975470066,1,0.694186747,1,2.1286273
"3084","FW",0,12,2,1,2,1,4.858042717,2,0.64713788,1,0.846448481
"3085","FW",0,13,1,2,1,1,3.140561342,1,1.96470809,1,1.4815346
"3086","FW",0,14,2,2,2,1,1.317092419,1,0.84713763,2,0.646411359
"3087","FW",0,15,2,2,1,0,0.705385447,2,1.058874369,2,1.187571406
"3088","FW",0,16,1,1,2,0,0.52883172,1,1.870672345,2,0.799295306
"3089","FW",0,17,2,1,1,0,0.575989544,1,0.71772331,1,0.49341774
"3090","FW",0,18,1,1,2,0,0.376165748,1,0.458777219,1,1.364040375
"3091","FW",0,19,1,2,1,1,0.352447093,2,0.600125611,2,1.846319914
"3092","FW",0,20,2,1,1,0,0.434880674,1,0.988236547,2,0.46984306
"3093","FW",0,21,1,1,1,1,1.093755841,1,1.529400826,1,0.328556687
"3094","FW",0,22,1,2,2,0,0.50543803,2,0.458916217,1,0.658060908
"3095","FW",0,23,2,1,1,0,0.364242107,1,0.941241562,1,2.822714329
"3096","FW",0,24,2,2,2,1,1.952410221,2,2.035266638,1,0.763997555
"3097","FW",0,25,1,1,1,1,0.999486804,2,2.341010809,2,4.375643253
"3098","FW",0,26,1,2,2,0,2.446408987,1,0.564825177,1,1.728680253
"3099","FW",0,27,2,2,1,0,0.587765753,2,1.15301013,1,0.693444848
"3100","FW",0,28,2,1,2,1,0.564223051,2,0.729508758,2,0.540515125
"3101","FW",0,29,1,1,2,0,0.328980982,1,0.482453167,1,1.328529358
"3102","FW",0,30,1,2,1,1,0.752425432,2,0.529542446,2,0.681675196
"3103","FW",0,31,1,1,1,1,2.634697914,1,0.929467678,1,0.375753015
"3104","FW",0,32,2,2,1,0,1.12891531,1,1.658658385,1,0.599316716
"3105","FW",0,33,1,2,2,0,0.658270359,1,0.729551852,2,0.634611309
"3106","FW",0,34,2,1,2,1,0.52894187,2,0.517719328,1,1.705115199
"3107","FW",0,35,2,2,1,0,0.599549592,1,5.329105377,2,0.48169741
"3108","FW",0,36,1,1,1,1,2.858057261,2,1.129547119,1,1.058133602
"3109","FW",0,37,1,1,1,1,0.552456081,2,1.058839679,2,0.787586093
"3110","FW",0,38,2,1,1,0,4.399250031,1,0.70595485,1,1.128664374
"3111","FW",0,39,2,2,2,1,0.623041153,2,1.235301733,2,2.069786549
"3112","FW",0,40,1,2,2,0,2.693475246,1,1.211858749,1,1.006586671
"3113","FW",0,41,2,2,1,0,3.364103794,1,0.57655555,1,1.222692728
"3114","FW",0,42,2,2,2,1,1.670056939,2,0.752989113,2,4.563940048
"3115","FW",0,43,2,1,1,0,0.470039427,1,1.082393527,1,1.305182576
"3116","FW",0,44,1,1,1,1,0.623061955,2,0.388317704,2,1.869797587
"3117","FW",0,45,1,1,1,1,1.197880745,1,0.423648149,1,1.454169035
"3118","FW",0,46,1,1,1,1,3.387337923,1,1.635347486,1,8.481226921
"3119","FW",0,47,2,2,2,1,1.12907517,1,0.741204858,1,1.999071717
"3120","FW",0,48,2,2,1,0,0.823018968,2,0.847144186,1,2.693305492
"3121","FW",0,49,1,2,1,1,0.775985479,2,0.682442129,1,0.728732169
"3122","FW",1,0,2,1,2,1,5.375448704,2,0.847114921,1,1.046162248
"3123","FW",1,1,1,1,2,0,0.493646055,1,0.57657671,2,0.869897664
"3124","FW",1,2,2,2,1,0,0.481868714,2,0.941268921,2,1.046362042
"3125","FW",1,3,1,2,1,1,0.552118063,2,1.682708621,1,1.339432716
"3126","FW",1,4,1,1,1,1,4.575718403,1,0.705944479,1,1.493399978
"3127","FW",1,5,1,1,2,0,0.505422592,2,0.435376972,1,2.069778919
"3128","FW",1,6,2,1,1,0,3.16402173,1,2.988138437,1,2.105086565
"3129","FW",1,7,1,1,1,1,0.84654516,1,0.835410774,1,0.905148387
"3130","FW",1,8,2,2,2,1,0.611471355,2,0.470678151,1,0.940319479
"3131","FW",1,9,2,2,1,0,0.870135963,2,0.658912897,2,1.152148962
"3132","FW",1,10,1,1,1,1,0.528973818,2,0.388323069,1,1.15220511
"3133","FW",1,11,1,1,2,0,1.717085004,1,0.717744112,1,1.446309566
"3134","FW",1,12,2,1,1,0,2.069998026,1,0.858935773,2,0.716967583
"3135","FW",1,13,2,2,2,1,0.481875658,2,0.553011656,2,0.811150789
"3136","FW",1,14,2,1,2,1,2.434683561,1,0.517750502,1,0.716942906
"3137","FW",1,15,1,2,2,0,0.470115662,1,0.870666146,2,0.787537575
"3138","FW",1,16,1,2,1,1,0.870112479,2,0.388349265,1,1.316927552
"3139","FW",1,17,2,2,2,1,1.646446824,2,1.847051382,2,2.246246338
"3140","FW",1,18,1,1,1,1,4.739403725,1,0.588314354,1,0.694394648
"3141","FW",1,19,2,1,1,0,0.681734145,1,1.305872917,2,0.717097282
"3142","FW",1,20,1,2,2,0,1.081843019,1,0.447138131,1,0.387573481
"3143","FW",1,21,1,2,2,0,2.975875854,2,0.917646468,1,1.975595593
"3144","FW",1,22,2,2,1,0,0.528894126,2,1.423565388,1,0.65815407
"3145","FW",1,23,2,2,2,1,2.834579229,2,0.788328767,1,0.69343406
"3146","FW",1,24,2,1,1,0,1.340616584,2,0.858917654,2,0.775772572
"3147","FW",1,25,1,1,2,0,1.422957778,1,0.364787668,1,1.3993119
"3148","FW",1,26,2,1,1,0,1.458341837,1,1.035228848,1,1.787394404
"3149","FW",1,27,1,2,2,0,0.446614891,1,0.858865678,2,0.658115923
"3150","FW",1,28,1,1,1,1,1.70630753,1,0.328536659,1,1.128670454
"3151","FW",1,29,2,1,2,1,0.505436838,2,0.411856949,2,2.187437773
"3152","FW",1,30,1,1,2,0,0.587758422,2,0.823584557,1,0.846381903
"3153","FW",1,31,1,1,2,0,0.705397725,2,1.364738822,2,0.865554035
"3154","FW",1,32,2,1,1,0,0.587726474,2,0.600102484,1,3.4814744
"3155","FW",1,33,2,1,2,1,0.92891407,1,0.376570404,1,1.16400826
"3156","FW",1,34,1,1,1,1,5.234499931,1,0.529471636,1,1.893376827
"3157","FW",1,35,1,1,2,0,0.728953183,1,2.247057199,2,1.081623912
"3158","FW",1,36,2,1,1,0,0.458290964,2,0.376598895,2,3.387404919
"3159","FW",1,37,2,1,1,0,1.258316994,1,0.458905816,2,1.869766355
"3160","FW",1,38,1,1,2,0,0.870187938,1,7.328974247,1,1.763839364
"3161","FW",1,39,2,2,1,0,1.422977805,1,0.870660722,1,0.693448722
"3162","FW",1,40,2,1,1,0,0.505399525,1,0.788324952,2,0.693428278
"3163","FW",1,41,2,2,1,0,1.164250493,2,0.529488564,1,0.987397969
"3164","FW",1,42,1,2,2,0,0.423028678,2,0.588329017,1,0.658142149
"3165","FW",1,43,1,1,2,0,0.798662722,2,1.164687753,1,2.599950075
"3166","FW",1,44,1,1,1,1,0.528936863,1,0.470706254,1,1.37574923
"3167","FW",1,45,1,2,2,0,0.470115662,1,0.36482811,2,2.163907766
"3168","FW",1,46,2,2,2,1,0.71717006,2,0.588295102,2,0.493595243
"3169","FW",1,47,2,2,2,1,0.493651837,2,7.952477932,1,1.01072669
"3170","FW",1,48,2,1,1,0,0.728924274,1,0.364778042,1,0.717020273
"3171","FW",1,49,1,1,1,1,0.658327699,1,1.058885932,1,0.646376371
"3172","FW",2,0,1,1,1,1,1.034596205,2,1.164706707,1,0.704938829
"3173","FW",2,1,2,2,2,1,0.528944135,1,1.482367635,2,0.587612927
"3174","FW",2,2,1,2,1,1,0.51715374,2,2.799904346,1,0.528759718
"3175","FW",2,3,1,1,1,1,0.540809274,2,1.2469697,2,0.705205262
"3176","FW",2,4,2,2,1,0,2.175866127,1,0.400106966,1,1.399227977
"3177","FW",2,5,1,2,1,1,0.469963193,2,1.623572826,1,0.587725341
"3178","FW",2,6,2,1,2,1,0.493667245,2,0.529454291,2,0.822858036
"3179","FW",2,7,2,2,1,0,0.340642422,1,1.788262963,2,0.799357653
"3180","FW",2,8,1,1,1,1,0.364257127,2,1.38833189,1,2.222644567
"3181","FW",2,9,2,2,2,1,0.599573493,2,1.505879998,2,0.846355319
"3182","FW",2,10,1,2,1,1,0.987703323,1,0.729496777,2,0.492533773
"3183","FW",2,11,2,1,2,1,0.45837298,1,2.2823174,1,1.069851637
"3184","FW",2,12,2,2,1,0,0.611215711,1,3.446976423,1,1.22269392
"3185","FW",2,13,2,2,2,1,0.470104873,1,1.141233206,1,1.806942225
"3186","FW",2,14,1,1,1,1,0.670026898,2,0.505829155,2,0.728791058
"3187","FW",2,15,2,1,2,1,0.764210105,2,0.858897686,1,1.246319771
"3188","FW",2,16,2,2,2,1,0.540721893,1,0.517763197,1,0.940370679
"3189","FW",2,17,1,1,2,0,0.975929439,2,1.25886333,1,0.316992283
"3190","FW",2,18,1,1,1,1,0.740643084,1,0.588308632,2,1.928627253
"3191","FW",2,19,1,1,2,0,0.59956193,1,0.423616558,2,1.669796586
"3192","FW",2,20,1,2,2,0,0.623085022,1,0.494218171,1,0.693463326
"3193","FW",2,21,2,1,2,1,0.776008964,2,0.411846161,1,0.599299371
"3194","FW",2,22,2,2,2,1,0.881828249,1,1.258842945,2,1.293616652
"3195","FW",2,23,1,1,1,1,2.022917509,1,0.83536303,1,1.434572697
"3196","FW",2,24,2,2,1,0,0.517121017,2,0.635420978,1,1.328690648
"3197","FW",2,25,1,2,1,1,0.575936437,2,1.141281366,1,1.528701186
"3198","FW",2,26,2,1,1,0,1.116996765,1,0.435396969,2,1.517092109
"3199","FW",2,27,1,2,2,0,0.481855631,2,1.729412436,1,0.364044607
"3200","FW",2,28,1,1,1,1,0.340890735,2,0.694181383,1,0.822622001
"3201","FW",2,29,2,1,1,0,0.411311775,1,0.823567569,2,0.575809777
"3202","FW",2,30,2,2,2,1,1.258355856,1,1.988195777,2,0.622822821
"3203","FW",2,31,1,2,2,0,0.59955734,2,1.164715886,1,0.528740108
"3204","FW",2,32,1,2,1,1,0.528909922,2,0.600077093,2,0.51700747
"3205","FW",2,33,1,2,1,1,3.399158955,1,0.45903942,2,2.752147913
"3206","FW",2,34,2,2,1,0,0.423081785,1,0.576535881,1,0.846387684
"3207","FW",2,35,2,1,1,0,0.352463245,2,0.282428384,1,0.634701431
"3208","FW",2,36,1,2,2,0,0.505453408,1,0.976504266,1,1.046310425
"3209","FW",2,37,2,2,1,0,0.587772667,1,0.541066825,2,0.75225836
"3210","FW",2,38,2,2,2,1,0.528943777,2,0.541285515,2,0.552232385
"3211","FW",2,39,1,1,2,0,0.670043051,2,0.964820862,1,0.622838616
"3212","FW",2,40,2,1,1,0,0.552433372,1,0.50599283,1,1.022837043
"3213","FW",2,41,2,2,2,1,0.564232647,2,0.470397085,2,0.705212533
"3214","FW",2,42,2,1,1,0,0.352489442,1,0.541246653,1,0.658154428
"3215","FW",2,43,2,2,1,0,1.528862596,1,0.329494178,1,1.434539557
"3216","FW",2,44,1,2,2,0,0.411259413,1,0.847166538,1,1.222794414
"3217","FW",2,45,1,2,2,0,0.434806764,2,0.329539627,2,0.599331737
"3218","FW",2,46,2,2,1,0,0.599499583,1,0.364817709,1,0.728727937
"3219","FW",2,47,1,1,1,1,0.423077166,2,2.882265568,1,2.340349913
"3220","FW",2,48,1,2,1,1,1.717068791,1,0.50599283,1,0.999266565
"3221","FW",2,49,1,2,2,0,0.493662238,2,0.494200855,1,0.65812403
"3222","FW",3,0,2,2,1,0,0.658183336,1,0.294232637,2,1.116634488
"3223","FW",3,1,1,2,1,1,0.964177489,1,1.341130614,1,0.774831235
"3224","FW",3,2,2,2,2,1,0.681827307,2,0.870688438,2,0.869921923
"3225","FW",3,3,1,2,1,1,1.434449077,1,0.458931625,1,0.787845194
"3226","FW",3,4,2,2,2,1,0.387730569,1,0.929526985,2,0.599331319
"3227","FW",3,5,1,1,2,0,0.458362192,2,0.847119927,1,0.999303937
"3228","FW",3,6,2,1,2,1,2.117106438,2,1.117655158,2,1.928619504
"3229","FW",3,7,2,1,2,1,0.729773641,2,0.705107093,1,1.305147171
"3230","FW",3,8,1,2,1,1,0.7171489,1,1.270631075,1,0.810965598
"3231","FW",3,9,1,1,1,1,0.223037362,2,1.129476666,2,1.64634943
"3232","FW",3,10,2,2,2,1,0.423041373,1,1.352961779,1,0.975764632
"3233","FW",3,11,1,1,1,1,0.305455565,2,0.752978683,1,1.116883874
"3234","FW",3,12,2,2,2,1,0.717150033,2,1.729407907,1,0.764026046
"3235","FW",3,13,2,1,2,1,0.881852508,2,0.894188821,1,0.893425763
"3236","FW",3,14,1,1,1,1,1.081843019,2,0.705966771,1,1.305111766
"3237","FW",3,15,2,1,2,1,0.775990129,2,0.623588622,2,0.716992557
"3238","FW",3,16,1,1,1,1,0.694624901,2,0.775544286,1,1.034621596
"3239","FW",3,17,2,1,2,1,0.50522548,2,0.623793066,1,1.681577802
"3240","FW",3,18,1,1,1,1,0.493609875,1,0.364753008,1,2.01099968
"3241","FW",3,19,1,1,1,1,1.199445009,1,0.423614264,1,1.222812891
"3242","FW",3,20,2,1,2,1,0.893554747,1,1.705896378,1,2.081595898
"3243","FW",3,21,1,2,1,1,0.364251345,1,0.529517412,2,0.987533867
"3244","FW",3,22,2,1,2,1,1.081801414,1,2.211750984,1,0.987564683
"3245","FW",3,23,2,1,2,1,0.517198384,2,0.400104642,1,0.775732517
"3246","FW",3,24,2,1,1,0,0.564319253,1,0.776527584,1,0.928603351
"3247","FW",3,25,2,2,2,1,0.610352516,1,0.989247918,1,5.740119457
"3248","FW",3,26,1,1,2,0,1.434709787,1,0.294288486,1,0.928662241
"3249","FW",3,27,1,1,1,1,0.823070168,2,0.364769578,2,0.916938424
"3250","FW",3,28,1,2,2,0,0.693666637,2,2.070543528,1,1.10519433
"3251","FW",3,29,1,1,1,1,0.481836379,2,4.164549828,1,0.540518224
"3252","FW",3,30,2,1,2,1,0.634823859,2,0.741003096,1,0.646372497
"3253","FW",3,31,2,1,1,0,0.552592397,2,1.164761662,1,0.893256366
"3254","FW",3,32,1,2,2,0,0.717141986,1,0.952996552,1,1.269881368
"3255","FW",3,33,2,1,2,1,1.859217167,1,0.728505433,1,0.528770506
"3256","FW",3,34,1,2,2,0,1.517081022,1,1.164661646,1,1.234750032
"3257","FW",3,35,2,1,1,0,0.529594839,1,0.975570619,1,0.587579787
"3258","FW",3,36,1,2,1,1,0.399516344,2,1.000086665,1,1.363941431
"3259","FW",3,37,1,2,1,1,0.540534019,1,2.199937344,1,0.516958177
"3260","FW",3,38,1,2,2,0,0.517136037,2,0.541295946,1,0.587584019
"3261","FW",3,39,2,1,2,1,3.128602028,1,0.988313138,1,0.822943091
"3262","FW",3,40,1,1,2,0,0.634558201,2,2.247196913,1,0.434669316
"3263","FW",3,41,2,2,2,1,0.423058301,2,0.717736006,2,0.599329412
"3264","FW",3,42,2,1,1,0,0.387831807,2,0.635343611,1,1.269812107
"3265","FW",3,43,2,2,1,0,0.517128706,2,1.035378575,1,1.422816873
"3266","FW",3,44,2,1,2,1,1.317082763,1,0.553037465,1,0.552289367
"3267","FW",3,45,1,2,2,0,0.705403149,1,0.541272819,2,0.787549555
"3268","FW",3,46,2,1,2,1,1.364151597,1,0.753000259,2,1.105252862
"3269","FW",3,47,1,1,1,1,0.59953922,2,0.47064656,2,1.552228212
"3270","FW",3,48,1,2,1,1,0.399557948,2,0.388314605,1,0.622881353
"3271","FW",3,49,1,1,1,1,0.670001864,2,0.906044722,1,0.763997197
"3272","FW",4,0,1,1,1,1,0.540477812,1,0.800088406,2,1.740159512
"3273","FW",4,1,1,2,2,0,0.870057046,2,0.529522419,1,0.634629428
"3274","FW",4,2,1,1,1,1,0.6112234,2,0.729279637,1,1.391820908
"3275","FW",4,3,2,1,2,1,0.964225233,1,1.5411762,1,1.011065841
"3276","FW",4,4,2,2,2,1,0.481909543,2,0.411841929,1,1.575731993
"3277","FW",4,5,1,1,1,1,0.38781178,2,0.717702925,1,0.775790691
"3278","FW",4,6,2,2,2,1,0.446422786,2,0.447186619,2,0.481941879
"3279","FW",4,7,2,1,1,0,0.576957881,1,1.540352225,2,0.857741475
"3280","FW",4,8,2,2,2,1,0.517293096,1,1.141082287,2,2.210937738
"3281","FW",4,9,1,1,1,1,0.340688229,2,0.776541054,2,1.669700742
"3282","FW",4,10,2,1,2,1,0.517090976,2,0.470736295,1,0.352271527
"3283","FW",4,11,2,2,2,1,0.724225283,2,1.364721417,1,1.027527571
"3284","FW",4,12,1,1,1,1,0.270132065,2,0.823591471,1,1.57571733
"3285","FW",4,13,2,1,2,1,0.599492252,1,2.399915218,1,1.622778177
"3286","FW",4,14,1,2,1,1,0.764242053,1,0.564758182,2,1.328689098
"3287","FW",4,15,1,2,2,0,0.75245434,1,0.388341933,1,0.999336243
"3288","FW",4,16,2,2,2,1,0.681878865,2,0.482430845,1,1.116932034
"3289","FW",4,17,1,2,1,1,0.411391079,1,0.670663655,2,0.563914657
"3290","FW",4,18,1,2,1,1,0.305394739,2,0.694226027,1,0.611066699
"3291","FW",4,19,2,2,1,0,0.528949559,1,1.105934381,1,0.811067581
"3292","FW",4,20,1,2,2,0,0.576003075,2,0.435398132,2,0.716973305
"3293","FW",4,21,1,2,1,1,0.717151582,2,2.293725491,1,9.716303825
"3294","FW",4,22,2,1,2,1,0.658345401,1,1.000052691,1,0.928715765
"3295","FW",4,23,2,1,2,1,0.528933406,2,0.305982262,1,0.481710106
"3296","FW",4,24,2,1,2,1,0.552300155,2,0.623732626,1,1.952171087
"3297","FW",4,25,2,1,1,0,0.470160693,1,0.847095668,2,0.516929269
"3298","FW",4,26,1,2,2,0,0.41131562,1,1.223571777,2,0.764002562
"3299","FW",4,27,1,1,1,1,0.43485412,2,0.329504192,2,0.387562305
"3300","FW",4,28,1,2,2,0,0.328920901,1,0.411881596,1,0.375821561
"3301","FW",4,29,2,2,2,1,2.105330944,2,0.917712331,2,1.340372086
"3302","FW",4,30,1,2,1,1,1.234731555,2,1.258921504,1,1.293512344
"3303","FW",4,31,1,1,2,0,0.493670702,1,2.117624998,2,1.211023211
"3304","FW",4,32,2,2,1,0,0.564274251,2,0.458908528,1,0.928696156
"3305","FW",4,33,1,2,1,1,0.317199409,2,0.364777267,2,0.25807482
"3306","FW",4,34,1,1,1,1,1.399452448,1,1.247110605,2,1.481648445
"3307","FW",4,35,2,2,2,1,0.317201704,1,0.811815679,1,1.069900155
"3308","FW",4,36,2,2,1,0,0.446565986,2,0.62359941,1,0.599349439
"3309","FW",4,37,2,2,1,0,0.693472981,2,0.35303998,2,0.493430823
"3310","FW",4,38,2,1,2,1,0.493609101,2,0.964776218,2,0.799348056
"3311","FW",4,39,1,1,1,1,0.399740428,2,0.541276276,1,0.751954973
"3312","FW",4,40,1,2,2,0,0.446576387,1,0.917725384,1,1.069895864
"3313","FW",4,41,1,2,2,0,1.634704113,1,5.152718544,1,3.152083158
"3314","FW",4,42,1,2,1,1,0.493682235,2,0.447119266,2,0.740490258
"3315","FW",4,43,1,2,1,1,0.47010833,2,1.47054112,2,0.811103404
"3316","FW",4,44,2,2,2,1,0.399556011,1,0.56476897,2,0.775980473
"3317","FW",4,45,2,2,1,0,1.023024559,2,1.588256598,1,0.246383741
"3318","FW",4,46,1,1,1,1,0.670150816,1,0.623616695,1,0.881613791
"3319","FW",4,47,2,2,2,1,0.634788811,2,0.694225669,1,1.575770497
"3320","FW",4,48,2,2,1,0,0.317140877,2,2.376494646,2,1.481561899
"3321","FW",4,49,2,2,2,1,0.434812933,1,0.729491055,2,0.975634515
"3322","FW",5,0,1,1,1,1,2.59920001,1,0.400094241,1,1.18725574
"3323","FW",5,1,1,2,1,1,0.964181721,2,1.282408357,1,2.458029985
"3324","FW",5,2,1,2,2,0,0.270134747,1,0.329528064,1,0.811063766
"3325","FW",5,3,2,2,1,0,0.858393669,1,1.070598483,1,0.787544131
"3326","FW",5,4,1,1,2,0,0.481886834,2,0.423628122,1,0.893396497
"3327","FW",5,5,2,2,2,1,0.446678042,2,0.470373601,2,0.963888347
"3328","FW",5,6,2,1,1,0,0.517172992,1,1.223583341,1,0.575738907
"3329","FW",5,7,2,1,1,0,0.717142344,1,2.58817935,2,0.79932493
"3330","FW",5,8,2,2,2,1,0.95240289,2,3.964555264,1,1.316904902
"3331","FW",5,9,1,2,1,1,3.034528494,1,4.399888039,1,1.069878936
"3332","FW",5,10,2,1,2,1,1.069963217,2,1.117441773,2,2.505080462
"3333","FW",5,11,1,1,2,0,1.234778523,2,0.776518703,1,3.963942766
"3334","FW",5,12,1,2,1,1,0.693623483,1,0.447131187,1,0.905203104
"3335","FW",5,13,2,2,2,1,0.552468777,2,1.047124743,1,0.646366715
"3336","FW",5,14,1,1,1,1,0.846612513,1,2.494002104,1,0.752189457
"3337","FW",5,15,2,1,2,1,0.928882897,2,0.658921361,1,2.70502615
"3338","FW",5,16,2,1,2,1,0.670166612,2,0.611782432,1,1.552077651
"3339","FW",5,17,1,1,1,1,0.728960872,1,8.30533886,1,1.058119774
"3340","FW",5,18,1,2,2,0,0.3173334,1,0.741090894,2,0.881636083
"3341","FW",5,19,2,1,1,0,0.811296284,1,0.729464054,1,0.858138025
"3342","FW",5,20,1,2,2,0,0.293688238,1,0.56478554,1,0.705199063
"3343","FW",5,21,1,1,1,1,0.376163065,2,0.423630029,2,0.716828585
"3344","FW",5,22,2,1,2,1,0.375962079,1,1.023638606,1,0.705171347
"3345","FW",5,23,1,2,1,1,0.646556139,2,1.400028825,2,1.728691697
"3346","FW",5,24,1,1,1,1,0.764220893,2,0.788277209,1,2.669095516
"3347","FW",5,25,2,2,2,1,0.599542677,2,0.611810505,2,0.599351346
"3348","FW",5,26,2,1,1,0,0.411281765,2,0.353029579,1,0.728740275
"3349","FW",5,27,2,2,1,0,1.599441051,1,0.541272461,2,2.375662088
"3350","FW",5,28,2,1,2,1,0.952516079,1,1.364718795,1,4.351925373
"3351","FW",5,29,1,1,2,0,0.610275865,1,2.788193226,2,1.588469863
"3352","FW",5,30,1,1,2,0,0.799604833,1,0.353020728,2,1.528657317
"3353","FW",5,31,2,2,1,0,0.893591285,1,4.329191685,1,1.681601286
"3354","FW",5,32,1,1,2,0,0.575976491,1,1.211745501,1,0.705190599
"3355","FW",5,33,2,1,1,0,0.693826795,1,6.294122219,1,0.681443453
"3356","FW",5,34,1,2,2,0,0.505352139,2,0.647168696,2,0.999363959
"3357","FW",5,35,2,2,1,0,0.470127195,2,0.470680833,1,0.434624642
"3358","FW",5,36,1,1,2,0,0.51715374,2,0.705970645,1,0.740494132
"3359","FW",5,37,1,1,1,1,0.387791783,2,0.341025501,2,0.752244115
"3360","FW",5,38,2,1,2,1,0.681826115,1,0.447190851,1,0.705259919
"3361","FW",5,39,2,2,1,0,0.552459955,1,0.72947526,2,1.128689408
"3362","FW",5,40,1,2,2,0,0.964551747,1,0.76480186,2,1.35178721
"3363","FW",5,41,2,1,2,1,2.117091417,1,0.800028741,2,19.08025932
"3364","FW",5,42,1,1,1,1,0.752566755,1,0.976505816,2,0.952146053
"3365","FW",5,43,2,2,2,1,0.376037538,1,1.717654347,1,0.775750995
"3366","FW",5,44,1,1,2,0,0.481908381,2,0.517500222,1,1.116886258
"3367","FW",5,45,2,1,1,0,0.376010597,2,0.164811,1,0.752150178
"3368","FW",5,46,1,1,2,0,0.623031914,2,0.623648286,2,0.387521118
"3369","FW",5,47,2,1,2,1,0.58777231,2,0.635226965,1,0.399346948
"3370","FW",5,48,2,1,1,0,3.822846889,1,0.435395449,1,2.269702673
"3371","FW",5,49,1,2,1,1,0.399546385,2,0.788271427,1,0.55228132
"3372","FW",6,0,1,1,1,1,0.55223161,1,0.494234741,2,0.693198442
"3373","FW",6,1,2,2,1,0,0.576002657,2,0.470620394,1,0.716927528
"3374","FW",6,2,1,1,2,0,0.470105648,2,0.482420832,2,0.611085176
"3375","FW",6,3,1,2,1,1,0.352422059,2,0.894194603,1,0.516972423
"3376","FW",6,4,1,1,1,1,0.399496347,1,1.541174293,2,0.481717408
"3377","FW",6,5,2,2,2,1,0.328919381,1,2.199965477,1,0.31695956
"3378","FW",6,6,2,1,2,1,0.328952879,1,0.682423294,1,0.352253407
"3379","FW",6,7,2,2,2,1,0.481857955,1,0.517738581,1,0.328765363
"3380","FW",6,8,2,1,2,1,0.422900856,2,0.82367003,1,0.49347049
"3381","FW",6,9,1,2,2,0,0.399509043,2,0.693958819,2,0.505196989
"3382","FW",6,10,1,2,1,1,0.352467477,2,0.811714053,2,0.587563992
"3383","FW",6,11,1,2,2,0,0.376028299,1,1.541151524,1,0.364006877
"3384","FW",6,12,2,1,1,0,0.317195565,1,1.11760664,2,0.340662062
"3385","FW",6,13,1,2,2,0,0.376019835,2,1.999937296,2,1.023048401
"3386","FW",6,14,2,2,1,0,0.3877756,2,0.976531565,1,0.493412733
"3387","FW",6,15,2,1,1,0,0.399546772,1,0.517696619,1,0.375793457
"3388","FW",6,16,2,1,1,0,0.917141736,1,0.482466638,1,0.340489566
"3389","FW",6,17,1,1,2,0,0.787636518,2,1.023655176,1,0.187425479
"3390","FW",6,18,1,1,1,1,0.823013186,1,0.788329184,2,0.505174696
"3391","FW",6,19,2,1,2,1,0.328971356,2,0.31776306,1,0.599305153
"3392","FW",6,20,1,1,1,1,0.49361527,1,0.294223785,1,0.764036834
"3393","FW",6,21,2,1,2,1,0.387759805,1,0.600091696,1,0.399347723
"3394","FW",6,22,2,1,1,0,0.693631589,2,1.094164371,1,0.646419823
"3395","FW",6,23,1,2,1,1,0.317155123,2,1.08240509,1,0.622891009
"3396","FW",6,24,1,1,2,0,0.634821534,1,0.223614097,1,0.246397987
"3397","FW",6,25,2,1,2,1,1.187699556,2,1.329447627,1,0.893417299
"3398","FW",6,26,2,1,1,0,0.881895602,1,0.341257274,1,0.622797072
"3399","FW",6,27,1,1,2,0,0.694235682,1,1.305273414,1,0.258140653
"3400","FW",6,28,1,2,2,0,0.37590009,2,1.411749125,1,0.39945361
"3401","FW",6,29,2,1,1,0,0.317162454,2,1.40002799,1,0.611056685
"3402","FW",6,30,1,1,2,0,0.446590632,2,0.647140563,1,0.328592896
"3403","FW",6,31,1,1,1,1,0.293925405,2,0.858911514,1,0.975440085
"3404","FW",6,32,1,1,2,0,0.493621796,2,0.88242346,1,0.375794977
"3405","FW",6,33,2,1,1,0,0.375953227,2,0.988332808,1,0.66988945
"3406","FW",6,34,2,1,2,1,0.646579266,2,0.717731416,1,0.493434697
"3407","FW",6,35,2,1,2,1,0.364129692,2,0.694303393,1,0.493438542
"3408","FW",6,36,1,1,1,1,0.387193859,1,0.459494114,2,0.363782048
"3409","FW",6,37,1,1,1,1,0.399551392,2,0.553004324,2,0.340493798
"3410","FW",6,38,2,2,2,1,0.481891066,2,1.611753106,2,0.78757453
"3411","FW",6,39,2,2,1,0,0.481891453,1,0.341221452,1,0.552211583
"3412","FW",6,40,2,1,2,1,0.375997126,1,0.353016883,2,0.62288636
"3413","FW",6,41,2,2,2,1,0.411336422,2,0.564777792,1,0.481661201
"3414","FW",6,42,2,1,1,0,0.187822416,2,1.599990487,1,1.552143097
"3415","FW",6,43,1,1,2,0,0.387720168,1,0.5412305,1,0.528738201
"3416","FW",6,44,2,2,2,1,0.564087868,2,1.482360363,1,1.293574333
"3417","FW",6,45,2,2,2,1,0.458247066,2,0.611932158,1,0.387597352
"3418","FW",6,46,1,1,1,1,0.434932649,2,0.447136968,2,0.68155551
"3419","FW",6,47,1,1,2,0,0.43470782,1,0.329595447,1,0.481724352
"3420","FW",6,48,1,1,1,1,0.340670913,2,2.529342175,2,0.858150363
"3421","FW",6,49,1,2,2,0,1.493550539,1,0.647135556,1,1.105175853
"3422","FW",7,0,2,1,2,1,2.822987795,1,1.082420468,1,0.704635441
"3423","FW",7,1,1,1,2,0,0.493635654,2,0.6589306,1,0.528753996
"3424","FW",7,2,1,2,1,1,0.399523288,2,0.847072959,2,0.458224744
"3425","FW",7,3,2,1,2,1,0.517157972,2,0.894185007,1,0.834597647
"3426","FW",7,4,2,1,1,0,0.423361301,2,0.564814746,1,0.422463089
