"","firstgabor","corrAns","blocks.thisRepN","blocks.thisTrialN","blocks.thisN","blocks.thisIndex","trials.thisRepN","trials.thisTrialN","trials.thisN","trials.thisIndex","key_resp_2.keys","key_resp_2.rt","resp.keys","resp.corr","resp.rt","resp_mrating.keys","resp_mrating.rt","lumi","mean","luminance","expName","participant","frameRate","session","date","blocks.thisTrial","X"
"1",1,"left",0,0,0,0,0,0,0,0,2,0.952978259,2,0,2.434478221,1,0.457777531,0.09,0,0.09,"metacognition_realexp","ah",85.36801247,1,"2013_Dec_04_1036",NA,NA
"2",1,"left",0,0,0,0,0,1,1,4,1,0.482468633,1,1,0.552730008,3,0.599049501,0.09,0.5,0.09,"metacognition_realexp","ah",85.36801247,1,"2013_Dec_04_1036",NA,NA
"3",2,"down",0,0,0,0,0,2,2,7,2,1.070632135,2,1,0.940657349,3,0.634643157,0.09,0.666666667,0.09,"metacognition_realexp","ah",85.36801247,1,"2013_Dec_04_1036",NA,NA
"4",2,"down",0,0,0,0,0,3,3,5,1,0.482393942,2,1,1.411246671,2,0.822884892,0.09,0.75,0.09,"metacognition_realexp","ah",85.36801247,1,"2013_Dec_04_1036",NA,NA
"5",1,"left",0,0,0,0,0,4,4,2,1,0.305962986,1,1,0.62309726,3,0.505094956,0.09,0.8,0.09,"metacognition_realexp","ah",85.36801247,1,"2013_Dec_04_1036",NA,NA
"6",1,"left",0,0,0,0,0,5,5,6,1,0.43532061,1,1,0.517174468,3,1.128701962,0.09,0.833333333,0.09,"metacognition_realexp","ah",85.36801247,1,"2013_Dec_04_1036",NA,NA
"7",2,"down",0,0,0,0,0,6,6,3,2,1.270628439,2,1,2.846467951,2,0.822873342,0.09,0.857142857,0.09,"metacognition_realexp","ah",85.36801247,1,"2013_Dec_04_1036",NA,NA
"8",1,"left",0,0,0,0,0,7,7,8,1,0.306025357,1,1,0.55241238,2,0.422899599,0.09,0.875,0.09,"metacognition_realexp","ah",85.36801247,1,"2013_Dec_04_1036",NA,NA
"9",2,"down",0,0,0,0,0,8,8,9,1,0.682434521,2,1,0.564218924,2,0.669950369,0.09,0.888888889,0.09,"metacognition_realexp","ah",85.36801247,1,"2013_Dec_04_1036",NA,NA
"10",2,"down",0,0,0,0,0,9,9,1,1,0.294237293,2,1,0.77532915,3,0.529380262,0.09,0.9,0.09,"metacognition_realexp","ah",85.36801247,1,"2013_Dec_04_1036",NA,NA
"11",1,"left",0,0,0,0,1,0,10,8,2,0.282413038,1,1,0.552505551,3,0.399259945,0.09,0.909090909,0.09,"metacognition_realexp","ah",85.36801247,1,"2013_Dec_04_1036",NA,NA
"12",2,"down",0,0,0,0,1,1,11,9,2,0.282755307,2,1,1.540348652,3,0.305218388,0.09,0.916666667,0.09,"metacognition_realexp","ah",85.36801247,1,"2013_Dec_04_1036",NA,NA
"13",2,"down",0,0,0,0,1,2,12,5,2,1.317608599,2,1,1.705284532,2,0.516996211,0.09,0.923076923,0.09,"metacognition_realexp","ah",85.36801247,1,"2013_Dec_04_1036",NA,NA
"14",2,"down",0,0,0,0,1,3,13,3,1,1.152969173,2,1,0.799585966,2,0.540433353,0.09,0.928571429,0.09,"metacognition_realexp","ah",85.36801247,1,"2013_Dec_04_1036",NA,NA
"15",2,"down",0,0,0,0,1,4,14,1,1,0.624534867,2,1,0.576013149,2,0.693399831,0.09,0.933333333,0.09,"metacognition_realexp","ah",85.36801247,1,"2013_Dec_04_1036",NA,NA
"16",1,"left",0,0,0,0,1,5,15,6,1,0.235513344,1,1,0.681740743,2,0.540494184,0.09,0.9375,0.09,"metacognition_realexp","ah",85.36801247,1,"2013_Dec_04_1036",NA,NA
"17",1,"left",0,0,0,0,1,6,16,2,1,0.541276898,1,1,0.423042821,1,0.422893824,0.09,0.941176471,0.09,"metacognition_realexp","ah",85.36801247,1,"2013_Dec_04_1036",NA,NA
"18",1,"left",0,0,0,0,1,7,17,4,2,0.600144454,1,1,0.917103935,1,0.434632223,0.09,0.944444444,0.09,"metacognition_realexp","ah",85.36801247,1,"2013_Dec_04_1036",NA,NA
"19",1,"left",0,0,0,0,1,8,18,0,1,0.282445763,1,1,0.364356602,1,0.32862088,0.09,0.947368421,0.09,"metacognition_realexp","ah",85.36801247,1,"2013_Dec_04_1036",NA,NA
"20",2,"down",0,0,0,0,1,9,19,7,2,0.352938142,2,1,2.23474988,2,0.422869954,0.09,0.95,0.09,"metacognition_realexp","ah",85.36801247,1,"2013_Dec_04_1036",NA,NA
"21",2,"down",0,0,0,0,2,0,20,1,1,0.317757596,2,1,1.470115382,3,1.222188342,0.09,0.952380952,0.09,"metacognition_realexp","ah",85.36801247,1,"2013_Dec_04_1036",NA,NA
"22",2,"down",0,0,0,0,2,1,21,5,2,0.623656287,2,1,1.811177678,1,0.975797854,0.09,0.954545455,0.09,"metacognition_realexp","ah",85.36801247,1,"2013_Dec_04_1036",NA,NA
"23",1,"left",0,0,0,0,2,2,22,8,2,0.482479798,1,1,0.56426012,2,0.728699729,0.09,0.956521739,0.09,"metacognition_realexp","ah",85.36801247,1,"2013_Dec_04_1036",NA,NA
"24",1,"left",0,0,0,0,2,3,23,0,2,0.729487063,1,1,0.681875495,2,0.52874693,0.09,0.958333333,0.09,"metacognition_realexp","ah",85.36801247,1,"2013_Dec_04_1036",NA,NA
"25",1,"left",0,0,0,0,2,4,24,4,1,0.306051922,1,1,0.470083042,2,0.540487639,0.09,0.96,0.09,"metacognition_realexp","ah",85.36801247,1,"2013_Dec_04_1036",NA,NA
"26",2,"down",0,0,0,0,2,5,25,7,1,0.329451334,1,0,0.6582266,1,1.270036302,0.09,0.923076923,0.09,"metacognition_realexp","ah",85.36801247,1,"2013_Dec_04_1036",NA,NA
"27",1,"left",0,0,0,0,2,6,26,6,1,0.389259841,1,1,0.599535377,3,1.669879913,0.09,0.925925926,0.09,"metacognition_realexp","ah",85.36801247,1,"2013_Dec_04_1036",NA,NA
"28",1,"left",0,0,0,0,2,7,27,2,1,0.27069697,1,1,0.528940587,2,0.446381017,0.09,0.928571429,0.09,"metacognition_realexp","ah",85.36801247,1,"2013_Dec_04_1036",NA,NA
"29",2,"down",0,0,0,0,2,8,28,3,1,0.270679259,2,1,0.987774571,2,0.975732788,0.09,0.931034483,0.09,"metacognition_realexp","ah",85.36801247,1,"2013_Dec_04_1036",NA,NA
"30",2,"down",0,0,0,0,2,9,29,9,2,0.88244815,2,1,1.364172955,3,0.446365231,0.09,0.933333333,0.09,"metacognition_realexp","ah",85.36801247,1,"2013_Dec_04_1036",NA,NA
"31",2,"down",0,0,0,0,3,0,30,9,2,0.670678027,2,1,1.164211686,3,0.728698959,0.09,0.935483871,0.09,"metacognition_realexp","ah",85.36801247,1,"2013_Dec_04_1036",NA,NA
"32",1,"left",0,0,0,0,3,1,31,6,2,0.764775025,2,0,0.775988277,1,0.693421392,0.09,0.90625,0.09,"metacognition_realexp","ah",85.36801247,1,"2013_Dec_04_1036",NA,NA
"33",2,"down",0,0,0,0,3,2,32,7,2,0.32952795,2,1,1.211218412,1,0.787534174,0.09,0.909090909,0.09,"metacognition_realexp","ah",85.36801247,1,"2013_Dec_04_1036",NA,NA
"34",2,"down",0,0,0,0,3,3,33,1,2,0.800061062,2,1,0.905462943,3,0.64634344,0.09,0.911764706,0.09,"metacognition_realexp","ah",85.36801247,1,"2013_Dec_04_1036",NA,NA
"35",2,"down",0,0,0,0,3,4,34,3,2,0.576493634,2,1,0.881817513,3,0.387604322,0.09,0.914285714,0.09,"metacognition_realexp","ah",85.36801247,1,"2013_Dec_04_1036",NA,NA
"36",2,"down",0,0,0,0,3,5,35,5,1,1.364731211,2,1,1.081865793,1,0.411064949,0.09,0.916666667,0.09,"metacognition_realexp","ah",85.36801247,1,"2013_Dec_04_1036",NA,NA
"37",1,"left",0,0,0,0,3,6,36,0,1,0.341323329,1,1,0.646492052,2,0.505285148,0.09,0.918918919,0.09,"metacognition_realexp","ah",85.36801247,1,"2013_Dec_04_1036",NA,NA
"38",1,"left",0,0,0,0,3,7,37,8,2,0.306021892,1,1,0.622912843,3,0.422970825,0.09,0.921052632,0.09,"metacognition_realexp","ah",85.36801247,1,"2013_Dec_04_1036",NA,NA
"39",1,"left",0,0,0,0,3,8,38,4,1,0.270544508,1,1,0.411386043,2,0.611040463,0.09,0.923076923,0.09,"metacognition_realexp","ah",85.36801247,1,"2013_Dec_04_1036",NA,NA
"40",1,"left",0,0,0,0,3,9,39,2,2,0.376592811,1,1,0.599506116,3,0.446389872,0.09,0.925,0.09,"metacognition_realexp","ah",85.36801247,1,"2013_Dec_04_1036",NA,NA
"41",2,"down",0,0,0,0,4,0,40,7,1,0.529479593,2,1,0.98775301,1,0.54055694,0.09,0.926829268,0.09,"metacognition_realexp","ah",85.36801247,1,"2013_Dec_04_1036",NA,NA
"42",1,"left",0,0,0,0,4,1,41,2,1,0.364636115,1,1,0.423273823,1,0.493437023,0.09,0.928571429,0.09,"metacognition_realexp","ah",85.36801247,1,"2013_Dec_04_1036",NA,NA
"43",2,"down",0,0,0,0,4,2,42,3,2,0.529520019,2,1,1.493738866,2,0.610668934,0.09,0.930232558,0.09,"metacognition_realexp","ah",85.36801247,1,"2013_Dec_04_1036",NA,NA
"44",1,"left",0,0,0,0,4,3,43,8,2,0.353057878,1,1,0.999435199,2,1.16411505,0.09,0.931818182,0.09,"metacognition_realexp","ah",85.36801247,1,"2013_Dec_04_1036",NA,NA
"45",2,"down",0,0,0,0,4,4,44,1,1,0.352995122,2,1,0.858332631,1,0.305179888,0.09,0.933333333,0.09,"metacognition_realexp","ah",85.36801247,1,"2013_Dec_04_1036",NA,NA
"46",2,"down",0,0,0,0,4,5,45,9,2,0.587831243,2,1,0.964655827,3,0.305216848,0.09,0.934782609,0.09,"metacognition_realexp","ah",85.36801247,1,"2013_Dec_04_1036",NA,NA
"47",2,"down",0,0,0,0,4,6,46,5,2,0.388382416,2,1,1.328808762,3,0.387605092,0.09,0.936170213,0.09,"metacognition_realexp","ah",85.36801247,1,"2013_Dec_04_1036",NA,NA
"48",1,"left",0,0,0,0,4,7,47,4,2,0.317754131,1,1,0.458477084,2,0.328614335,0.09,0.9375,0.09,"metacognition_realexp","ah",85.36801247,1,"2013_Dec_04_1036",NA,NA
"49",1,"left",0,0,0,0,4,8,48,0,1,0.235436728,1,1,0.481740204,1,0.411224341,0.09,0.93877551,0.09,"metacognition_realexp","ah",85.36801247,1,"2013_Dec_04_1036",NA,NA
"50",1,"left",0,0,0,0,4,9,49,6,2,0.376545071,1,1,0.775867771,1,0.352438406,0.09,0.94,0.09,"metacognition_realexp","ah",85.36801247,1,"2013_Dec_04_1036",NA,NA
"51",2,"down",1,0,1,0,0,0,0,5,2,1.247110446,2,1,0.752173831,2,0.963866953,0.09,1,0.09,"metacognition_realexp","ah",85.36801247,1,"2013_Dec_04_1036",NA,NA
"52",2,"down",1,0,1,0,0,1,1,7,2,1.094162448,1,0,1.023052523,1,0.399295365,0.09,0.5,0.09,"metacognition_realexp","ah",85.36801247,1,"2013_Dec_04_1036",NA,NA
"53",1,"left",1,0,1,0,0,2,2,4,2,0.976498562,2,0,0.658353267,1,0.999300832,0.09,0.333333333,0.09,"metacognition_realexp","ah",85.36801247,1,"2013_Dec_04_1036",NA,NA
"54",2,"down",1,0,1,0,0,3,3,9,2,1.999928004,2,1,0.717156142,3,0.434663793,0.09,0.5,0.09,"metacognition_realexp","ah",85.36801247,1,"2013_Dec_04_1036",NA,NA
"55",1,"left",1,0,1,0,0,4,4,2,2,0.411857673,1,1,0.376011455,1,0.399375061,0.09,0.6,0.09,"metacognition_realexp","ah",85.36801247,1,"2013_Dec_04_1036",NA,NA
"56",2,"down",1,0,1,0,0,5,5,1,2,0.941240245,2,1,0.517276109,2,0.999186871,0.09,0.666666667,0.09,"metacognition_realexp","ah",85.36801247,1,"2013_Dec_04_1036",NA,NA
"57",1,"left",1,0,1,0,0,6,6,6,1,0.27071622,1,1,0.43485129,2,0.564059147,0.09,0.714285714,0.09,"metacognition_realexp","ah",85.36801247,1,"2013_Dec_04_1036",NA,NA
"58",2,"down",1,0,1,0,0,7,7,3,1,0.506104822,2,1,0.728751704,1,0.352263229,0.09,0.75,0.09,"metacognition_realexp","ah",85.36801247,1,"2013_Dec_04_1036",NA,NA
"59",1,"left",1,0,1,0,0,8,8,8,2,0.38836124,1,1,0.493648005,3,0.528771955,0.09,0.777777778,0.09,"metacognition_realexp","ah",85.36801247,1,"2013_Dec_04_1036",NA,NA
"60",1,"left",1,0,1,0,0,9,9,0,2,0.905964218,1,1,0.505381784,3,0.669943439,0.09,0.8,0.09,"metacognition_realexp","ah",85.36801247,1,"2013_Dec_04_1036",NA,NA
"61",1,"left",1,0,1,0,1,0,10,2,2,0.694147125,1,1,0.587756167,1,0.705210996,0.09,0.818181818,0.09,"metacognition_realexp","ah",85.36801247,1,"2013_Dec_04_1036",NA,NA
"62",2,"down",1,0,1,0,1,1,11,3,1,0.83542949,1,0,0.458347338,1,0.940466002,0.09,0.75,0.09,"metacognition_realexp","ah",85.36801247,1,"2013_Dec_04_1036",NA,NA
"63",2,"down",1,0,1,0,1,2,12,7,1,0.576655721,2,1,0.575866847,1,0.952246751,0.09,0.769230769,0.09,"metacognition_realexp","ah",85.36801247,1,"2013_Dec_04_1036",NA,NA
"64",2,"down",1,0,1,0,1,3,13,9,2,1.505929645,2,1,2.587578295,1,0.787557659,0.09,0.785714286,0.09,"metacognition_realexp","ah",85.36801247,1,"2013_Dec_04_1036",NA,NA
"65",1,"left",1,0,1,0,1,4,14,0,2,1.81178252,1,1,0.68184508,1,0.364077474,0.09,0.8,0.09,"metacognition_realexp","ah",85.36801247,1,"2013_Dec_04_1036",NA,NA
"66",1,"left",1,0,1,0,1,5,15,6,2,1.12947428,2,0,0.599547697,1,0.646414281,0.09,0.75,0.09,"metacognition_realexp","ah",85.36801247,1,"2013_Dec_04_1036",NA,NA
"67",2,"down",1,0,1,0,1,6,16,1,1,0.294204567,2,1,0.493668025,2,0.599317464,0.09,0.764705882,0.09,"metacognition_realexp","ah",85.36801247,1,"2013_Dec_04_1036",NA,NA
"68",1,"left",1,0,1,0,1,7,17,4,1,0.600099023,1,1,0.552468975,1,0.46990979,0.09,0.777777778,0.09,"metacognition_realexp","ah",85.36801247,1,"2013_Dec_04_1036",NA,NA
"69",2,"down",1,0,1,0,1,8,18,5,1,1.152954928,2,1,0.55246782,1,0.728773264,0.09,0.789473684,0.09,"metacognition_realexp","ah",85.36801247,1,"2013_Dec_04_1036",NA,NA
"70",1,"left",1,0,1,0,1,9,19,8,1,0.364774332,1,1,0.399510582,1,0.493421623,0.09,0.8,0.09,"metacognition_realexp","ah",85.36801247,1,"2013_Dec_04_1036",NA,NA
"71",2,"down",1,0,1,0,2,0,20,7,1,0.635363885,2,1,0.787763252,2,0.575812176,0.09,0.80952381,0.09,"metacognition_realexp","ah",85.36801247,1,"2013_Dec_04_1036",NA,NA
"72",2,"down",1,0,1,0,2,1,21,5,1,0.811833341,2,1,0.56425319,3,0.575822571,0.09,0.818181818,0.09,"metacognition_realexp","ah",85.36801247,1,"2013_Dec_04_1036",NA,NA
"73",2,"down",1,0,1,0,2,2,22,9,1,0.646923257,2,1,0.670255678,1,0.622829682,0.09,0.826086957,0.09,"metacognition_realexp","ah",85.36801247,1,"2013_Dec_04_1036",NA,NA
"74",1,"left",1,0,1,0,2,3,23,2,2,0.400095019,2,0,0.693672029,3,0.328725601,0.09,0.791666667,0.09,"metacognition_realexp","ah",85.36801247,1,"2013_Dec_04_1036",NA,NA
"75",1,"left",1,0,1,0,2,4,24,0,1,0.635414321,1,1,0.657646399,3,0.529456878,0.09,0.8,0.09,"metacognition_realexp","ah",85.36801247,1,"2013_Dec_04_1036",NA,NA
"76",2,"down",1,0,1,0,2,5,25,1,1,0.282471944,2,1,0.681883195,3,0.422807198,0.09,0.807692308,0.09,"metacognition_realexp","ah",85.36801247,1,"2013_Dec_04_1036",NA,NA
"77",1,"left",1,0,1,0,2,6,26,4,2,0.494196636,1,1,0.411298262,3,0.469955605,0.09,0.814814815,0.09,"metacognition_realexp","ah",85.36801247,1,"2013_Dec_04_1036",NA,NA
"78",1,"left",1,0,1,0,2,7,27,8,1,0.282460779,1,1,0.552463585,2,0.328089959,0.09,0.821428571,0.09,"metacognition_realexp","ah",85.36801247,1,"2013_Dec_04_1036",NA,NA
"79",2,"down",1,0,1,0,2,8,28,3,1,0.76480929,2,1,0.564165024,3,0.705209071,0.09,0.827586207,0.09,"metacognition_realexp","ah",85.36801247,1,"2013_Dec_04_1036",NA,NA
"80",1,"left",1,0,1,0,2,9,29,6,1,0.388322355,1,1,0.470205858,1,0.458063205,0.09,0.833333333,0.09,"metacognition_realexp","ah",85.36801247,1,"2013_Dec_04_1036",NA,NA
"81",1,"left",1,0,1,0,3,0,30,0,1,0.282525074,1,1,0.482057448,2,0.422606611,0.09,0.838709677,0.09,"metacognition_realexp","ah",85.36801247,1,"2013_Dec_04_1036",NA,NA
"82",1,"left",1,0,1,0,3,1,31,4,1,0.611844737,1,1,0.399613764,1,0.375717696,0.09,0.84375,0.09,"metacognition_realexp","ah",85.36801247,1,"2013_Dec_04_1036",NA,NA
"83",2,"down",1,0,1,0,3,2,32,5,1,0.364827462,2,1,0.552428165,1,1.21107981,0.09,0.848484848,0.09,"metacognition_realexp","ah",85.36801247,1,"2013_Dec_04_1036",NA,NA
"84",1,"left",1,0,1,0,3,3,33,8,2,0.400117349,1,1,0.470180448,2,0.422934249,0.09,0.852941176,0.09,"metacognition_realexp","ah",85.36801247,1,"2013_Dec_04_1036",NA,NA
"85",2,"down",1,0,1,0,3,4,34,9,2,0.964788654,2,1,2.164155476,2,1.069685409,0.09,0.857142857,0.09,"metacognition_realexp","ah",85.36801247,1,"2013_Dec_04_1036",NA,NA
"86",2,"down",1,0,1,0,3,5,35,3,2,0.835363654,2,1,0.999490639,2,1.164008019,0.09,0.861111111,0.09,"metacognition_realexp","ah",85.36801247,1,"2013_Dec_04_1036",NA,NA
"87",1,"left",1,0,1,0,3,6,36,6,2,1.070620585,1,1,0.458278422,3,0.458264947,0.09,0.864864865,0.09,"metacognition_realexp","ah",85.36801247,1,"2013_Dec_04_1036",NA,NA
"88",2,"down",1,0,1,0,3,7,37,7,2,0.553011062,2,1,1.140672133,2,1.399309225,0.09,0.868421053,0.09,"metacognition_realexp","ah",85.36801247,1,"2013_Dec_04_1036",NA,NA
"89",2,"down",1,0,1,0,3,8,38,1,1,1.717723638,2,1,0.834605195,1,0.328925803,0.09,0.871794872,0.09,"metacognition_realexp","ah",85.36801247,1,"2013_Dec_04_1036",NA,NA
"90",1,"left",1,0,1,0,3,9,39,2,2,0.600139064,1,1,0.352535042,3,0.387516156,0.09,0.875,0.09,"metacognition_realexp","ah",85.36801247,1,"2013_Dec_04_1036",NA,NA
"91",1,"left",1,0,1,0,4,0,40,2,2,0.529417993,2,0,0.658350572,1,0.352260919,0.09,0.853658537,0.09,"metacognition_realexp","ah",85.36801247,1,"2013_Dec_04_1036",NA,NA
"92",2,"down",1,0,1,0,4,1,41,3,2,1.541166017,1,0,0.611288021,1,0.399383916,0.09,0.833333333,0.09,"metacognition_realexp","ah",85.36801247,1,"2013_Dec_04_1036",NA,NA
"93",2,"down",1,0,1,0,4,2,42,7,1,0.258933931,2,1,0.458236842,1,0.399460917,0.09,0.837209302,0.09,"metacognition_realexp","ah",85.36801247,1,"2013_Dec_04_1036",NA,NA
"94",2,"down",1,0,1,0,4,3,43,5,2,1.364652285,2,1,1.023169179,2,1.57570091,0.09,0.840909091,0.09,"metacognition_realexp","ah",85.36801247,1,"2013_Dec_04_1036",NA,NA
"95",2,"down",1,0,1,0,4,4,44,9,2,1.058839835,2,1,1.128904089,2,0.693457197,0.09,0.844444444,0.09,"metacognition_realexp","ah",85.36801247,1,"2013_Dec_04_1036",NA,NA
"96",2,"down",1,0,1,0,4,5,45,1,1,0.588314039,2,1,0.611279936,1,0.669931504,0.09,0.847826087,0.09,"metacognition_realexp","ah",85.36801247,1,"2013_Dec_04_1036",NA,NA
"97",1,"left",1,0,1,0,4,6,46,0,1,0.282470019,1,1,0.481883811,2,0.375792772,0.09,0.85106383,0.09,"metacognition_realexp","ah",85.36801247,1,"2013_Dec_04_1036",NA,NA
"98",1,"left",1,0,1,0,4,7,47,8,2,0.317786471,1,1,0.423043591,1,0.387595082,0.09,0.854166667,0.09,"metacognition_realexp","ah",85.36801247,1,"2013_Dec_04_1036",NA,NA
"99",1,"left",1,0,1,0,4,8,48,6,1,0.306309105,1,1,0.305059766,3,0.269924266,0.09,0.857142857,0.09,"metacognition_realexp","ah",85.36801247,1,"2013_Dec_04_1036",NA,NA
"100",1,"left",1,0,1,0,4,9,49,4,1,1.329613421,1,1,0.716923214,2,2.528622959,0.09,0.86,0.09,"metacognition_realexp","ah",85.36801247,1,"2013_Dec_04_1036",NA,NA
"101",1,"left",2,0,2,0,0,0,0,8,2,0.776556159,2,0,0.752317438,1,0.469579841,0.09,0,0.09,"metacognition_realexp","ah",85.36801247,1,"2013_Dec_04_1036",NA,NA
"102",1,"left",2,0,2,0,0,1,1,6,1,0.376610521,1,1,0.540738277,2,0.716910894,0.09,0.5,0.09,"metacognition_realexp","ah",85.36801247,1,"2013_Dec_04_1036",NA,NA
"103",1,"left",2,0,2,0,0,2,2,2,1,0.376548921,1,1,0.576020849,1,0.446521158,0.09,0.666666667,0.09,"metacognition_realexp","ah",85.36801247,1,"2013_Dec_04_1036",NA,NA
"104",2,"down",2,0,2,0,0,3,3,1,1,0.235403232,2,1,0.552550211,3,0.528674934,0.09,0.75,0.09,"metacognition_realexp","ah",85.36801247,1,"2013_Dec_04_1036",NA,NA
"105",2,"down",2,0,2,0,0,4,4,9,2,1.541140991,2,1,0.764243334,2,0.7875823,0.09,0.8,0.09,"metacognition_realexp","ah",85.36801247,1,"2013_Dec_04_1036",NA,NA
"106",1,"left",2,0,2,0,0,5,5,4,1,0.306058468,1,1,0.575957708,3,0.39928651,0.09,0.833333333,0.09,"metacognition_realexp","ah",85.36801247,1,"2013_Dec_04_1036",NA,NA
"107",1,"left",2,0,2,0,0,6,6,0,1,0.258955876,1,1,0.352468051,3,0.446434532,0.09,0.857142857,0.09,"metacognition_realexp","ah",85.36801247,1,"2013_Dec_04_1036",NA,NA
"108",2,"down",2,0,2,0,0,7,7,7,2,0.5178001,2,1,1.67000735,1,0.364027423,0.09,0.875,0.09,"metacognition_realexp","ah",85.36801247,1,"2013_Dec_04_1036",NA,NA
"109",2,"down",2,0,2,0,0,8,8,3,2,0.64718429,2,1,0.587591386,3,0.293613586,0.09,0.888888889,0.09,"metacognition_realexp","ah",85.36801247,1,"2013_Dec_04_1036",NA,NA
"110",2,"down",2,0,2,0,0,9,9,5,2,0.411841118,2,1,0.481901521,2,0.528745775,0.09,0.9,0.09,"metacognition_realexp","ah",85.36801247,1,"2013_Dec_04_1036",NA,NA
"111",1,"left",2,0,2,0,1,0,10,4,1,0.376603206,1,1,0.458354653,2,0.669905324,0.09,0.909090909,0.09,"metacognition_realexp","ah",85.36801247,1,"2013_Dec_04_1036",NA,NA
"112",1,"left",2,0,2,0,1,1,11,0,2,0.835329774,2,0,0.658402933,1,0.505794124,0.09,0.833333333,0.09,"metacognition_realexp","ah",85.36801247,1,"2013_Dec_04_1036",NA,NA
"113",2,"down",2,0,2,0,1,2,12,5,1,0.400079234,2,1,0.564272825,2,0.740500113,0.09,0.846153846,0.09,"metacognition_realexp","ah",85.36801247,1,"2013_Dec_04_1036",NA,NA
"114",1,"left",2,0,2,0,1,3,13,6,1,0.517728875,1,1,0.49365455,2,2.846183817,0.09,0.857142857,0.09,"metacognition_realexp","ah",85.36801247,1,"2013_Dec_04_1036",NA,NA
"115",2,"down",2,0,2,0,1,4,14,1,1,0.541282673,2,1,0.658345567,2,0.66998733,0.09,0.866666667,0.09,"metacognition_realexp","ah",85.36801247,1,"2013_Dec_04_1036",NA,NA
"116",2,"down",2,0,2,0,1,5,15,7,1,0.741220841,2,1,0.776015998,1,0.916934918,0.09,0.875,0.09,"metacognition_realexp","ah",85.36801247,1,"2013_Dec_04_1036",NA,NA
"117",1,"left",2,0,2,0,1,6,16,2,1,0.317883492,1,1,0.422906914,1,0.822833301,0.09,0.882352941,0.09,"metacognition_realexp","ah",85.36801247,1,"2013_Dec_04_1036",NA,NA
"118",2,"down",2,0,2,0,1,7,17,3,1,0.553071892,2,1,0.564145003,2,0.6463727,0.09,0.888888889,0.09,"metacognition_realexp","ah",85.36801247,1,"2013_Dec_04_1036",NA,NA
"119",1,"left",2,0,2,0,1,8,18,8,1,0.282487729,1,1,0.4348305,2,0.987630194,0.09,0.894736842,0.09,"metacognition_realexp","ah",85.36801247,1,"2013_Dec_04_1036",NA,NA
"120",2,"down",2,0,2,0,1,9,19,9,1,0.564791041,2,1,0.623052215,2,0.611115539,0.09,0.9,0.09,"metacognition_realexp","ah",85.36801247,1,"2013_Dec_04_1036",NA,NA
"121",1,"left",2,0,2,0,2,0,20,2,1,0.341269814,1,1,0.399514817,3,1.011045006,0.09,0.904761905,0.09,"metacognition_realexp","ah",85.36801247,1,"2013_Dec_04_1036",NA,NA
"122",1,"left",2,0,2,0,2,1,21,0,2,0.564796816,1,1,0.446547338,1,0.587568285,0.09,0.909090909,0.09,"metacognition_realexp","ah",85.36801247,1,"2013_Dec_04_1036",NA,NA
"123",2,"down",2,0,2,0,2,2,22,3,1,0.611828567,2,1,1.105430756,1,0.493386202,0.09,0.913043478,0.09,"metacognition_realexp","ah",85.36801247,1,"2013_Dec_04_1036",NA,NA
"124",1,"left",2,0,2,0,2,3,23,6,2,0.494266322,1,1,0.552751184,3,0.422498424,0.09,0.916666667,0.09,"metacognition_realexp","ah",85.36801247,1,"2013_Dec_04_1036",NA,NA
"125",2,"down",2,0,2,0,2,4,24,5,1,0.717518431,2,1,0.834913584,2,0.505279758,0.09,0.92,0.09,"metacognition_realexp","ah",85.36801247,1,"2013_Dec_04_1036",NA,NA
"126",1,"left",2,0,2,0,2,5,25,4,1,0.282442298,1,1,0.423105961,3,0.787500294,0.09,0.923076923,0.09,"metacognition_realexp","ah",85.36801247,1,"2013_Dec_04_1036",NA,NA
"127",2,"down",2,0,2,0,2,6,26,9,2,0.306052307,2,1,1.105520077,3,0.481302839,0.09,0.925925926,0.09,"metacognition_realexp","ah",85.36801247,1,"2013_Dec_04_1036",NA,NA
"128",2,"down",2,0,2,0,2,7,27,1,2,0.611882852,2,1,1.023011327,2,1.152232275,0.09,0.928571429,0.09,"metacognition_realexp","ah",85.36801247,1,"2013_Dec_04_1036",NA,NA
"129",2,"down",2,0,2,0,2,8,28,7,1,0.811864911,2,1,1.29356392,1,0.458193721,0.09,0.931034483,0.09,"metacognition_realexp","ah",85.36801247,1,"2013_Dec_04_1036",NA,NA
"130",1,"left",2,0,2,0,2,9,29,8,1,0.447176051,1,1,0.411315202,1,0.705285687,0.09,0.933333333,0.09,"metacognition_realexp","ah",85.36801247,1,"2013_Dec_04_1036",NA,NA
"131",1,"left",2,0,2,0,3,0,30,2,1,0.541203747,1,1,0.46950592,2,0.68230901,0.09,0.935483871,0.09,"metacognition_realexp","ah",85.36801247,1,"2013_Dec_04_1036",NA,NA
"132",1,"left",2,0,2,0,3,1,31,8,1,0.258955491,1,1,0.328848417,3,0.681759609,0.09,0.9375,0.09,"metacognition_realexp","ah",85.36801247,1,"2013_Dec_04_1036",NA,NA
"133",1,"left",2,0,2,0,3,2,32,6,2,2.223540092,1,1,0.74066682,1,0.458134815,0.09,0.939393939,0.09,"metacognition_realexp","ah",85.36801247,1,"2013_Dec_04_1036",NA,NA
"134",2,"down",2,0,2,0,3,3,33,9,1,0.658916143,2,1,0.917115101,2,0.516421015,0.09,0.941176471,0.09,"metacognition_realexp","ah",85.36801247,1,"2013_Dec_04_1036",NA,NA
"135",2,"down",2,0,2,0,3,4,34,7,1,0.505983546,1,0,0.458335018,1,1.140483096,0.09,0.914285714,0.09,"metacognition_realexp","ah",85.36801247,1,"2013_Dec_04_1036",NA,NA
"136",2,"down",2,0,2,0,3,5,35,5,2,1.141230004,2,1,0.528938277,3,0.493435098,0.09,0.916666667,0.09,"metacognition_realexp","ah",85.36801247,1,"2013_Dec_04_1036",NA,NA
"137",1,"left",2,0,2,0,3,6,36,0,2,0.376600126,1,1,0.599544617,1,0.340475935,0.09,0.918918919,0.09,"metacognition_realexp","ah",85.36801247,1,"2013_Dec_04_1036",NA,NA
"138",2,"down",2,0,2,0,3,7,37,3,2,0.294213808,2,1,0.740738816,2,0.410904017,0.09,0.921052632,0.09,"metacognition_realexp","ah",85.36801247,1,"2013_Dec_04_1036",NA,NA
"139",2,"down",2,0,2,0,3,8,38,1,2,0.306065013,2,1,0.834677961,2,0.446486893,0.09,0.923076923,0.09,"metacognition_realexp","ah",85.36801247,1,"2013_Dec_04_1036",NA,NA
"140",1,"left",2,0,2,0,3,9,39,4,2,0.811902642,1,1,0.340670362,1,0.434632608,0.09,0.925,0.09,"metacognition_realexp","ah",85.36801247,1,"2013_Dec_04_1036",NA,NA
"141",2,"down",2,0,2,0,4,0,40,9,2,0.423662293,2,1,0.634825264,2,0.646345365,0.09,0.926829268,0.09,"metacognition_realexp","ah",85.36801247,1,"2013_Dec_04_1036",NA,NA
"142",1,"left",2,0,2,0,4,1,41,6,2,1.00001309,1,1,0.681898595,1,0.375827038,0.09,0.928571429,0.09,"metacognition_realexp","ah",85.36801247,1,"2013_Dec_04_1036",NA,NA
"143",1,"left",2,0,2,0,4,2,42,0,2,0.658927693,1,1,0.317146979,1,0.375844748,0.09,0.930232558,0.09,"metacognition_realexp","ah",85.36801247,1,"2013_Dec_04_1036",NA,NA
"144",1,"left",2,0,2,0,4,3,43,4,2,0.917700307,1,1,0.328943898,1,0.352333685,0.09,0.931818182,0.09,"metacognition_realexp","ah",85.36801247,1,"2013_Dec_04_1036",NA,NA
"145",2,"down",2,0,2,0,4,4,44,5,2,1.047101437,2,1,0.705401573,2,0.893477371,0.09,0.933333333,0.09,"metacognition_realexp","ah",85.36801247,1,"2013_Dec_04_1036",NA,NA
"146",1,"left",2,0,2,0,4,5,45,8,1,0.87056961,1,1,0.352491537,2,0.834608275,0.09,0.934782609,0.09,"metacognition_realexp","ah",85.36801247,1,"2013_Dec_04_1036",NA,NA
"147",2,"down",2,0,2,0,4,6,46,7,2,0.611844737,2,1,1.317107708,3,1.316993747,0.09,0.936170213,0.09,"metacognition_realexp","ah",85.36801247,1,"2013_Dec_04_1036",NA,NA
"148",2,"down",2,0,2,0,4,7,47,1,2,0.753128257,2,1,0.705261816,1,0.316962947,0.09,0.9375,0.09,"metacognition_realexp","ah",85.36801247,1,"2013_Dec_04_1036",NA,NA
"149",2,"down",2,0,2,0,4,8,48,3,2,1.22337993,2,1,0.540901904,2,0.964092566,0.09,0.93877551,0.09,"metacognition_realexp","ah",85.36801247,1,"2013_Dec_04_1036",NA,NA
"150",1,"left",2,0,2,0,4,9,49,2,1,0.694245301,1,1,0.705327652,1,0.552278783,0.09,0.94,0.09,"metacognition_realexp","ah",85.36801247,1,"2013_Dec_04_1036",NA,NA
"151",2,"down",3,0,3,0,0,0,0,7,2,0.494227052,2,1,0.858174009,2,0.657802326,0.09,1,0.09,"metacognition_realexp","ah",85.36801247,1,"2013_Dec_04_1036",NA,NA
"152",1,"left",3,0,3,0,0,1,1,4,1,0.553065732,1,1,0.68185432,1,0.375839743,0.09,1,0.09,"metacognition_realexp","ah",85.36801247,1,"2013_Dec_04_1036",NA,NA
"153",2,"down",3,0,3,0,0,2,2,3,2,0.611885547,1,0,0.811274699,1,0.528741925,0.09,0.666666667,0.09,"metacognition_realexp","ah",85.36801247,1,"2013_Dec_04_1036",NA,NA
"154",1,"left",3,0,3,0,0,3,3,6,1,0.235382057,1,1,0.564238944,1,0.493445493,0.09,0.75,0.09,"metacognition_realexp","ah",85.36801247,1,"2013_Dec_04_1036",NA,NA
"155",2,"down",3,0,3,0,0,4,4,1,2,0.400058059,2,1,0.775971722,2,1.128722752,0.09,0.8,0.09,"metacognition_realexp","ah",85.36801247,1,"2013_Dec_04_1036",NA,NA
"156",1,"left",3,0,3,0,0,5,5,2,2,0.576565245,1,1,0.352557372,1,0.493335382,0.09,0.833333333,0.09,"metacognition_realexp","ah",85.36801247,1,"2013_Dec_04_1036",NA,NA
"157",1,"left",3,0,3,0,0,6,6,0,1,0.999884884,2,0,0.69374056,1,0.375785072,0.09,0.714285714,0.09,"metacognition_realexp","ah",85.36801247,1,"2013_Dec_04_1036",NA,NA
"158",1,"left",3,0,3,0,0,7,7,8,1,0.812072044,1,1,0.305274984,1,0.328603939,0.09,0.75,0.09,"metacognition_realexp","ah",85.36801247,1,"2013_Dec_04_1036",NA,NA
"159",2,"down",3,0,3,0,0,8,8,9,2,0.81179946,1,0,0.528999108,2,0.34046708,0.09,0.666666667,0.09,"metacognition_realexp","ah",85.36801247,1,"2013_Dec_04_1036",NA,NA
"160",2,"down",3,0,3,0,0,9,9,5,2,0.588287089,2,1,0.435155444,1,0.563674528,0.09,0.7,0.09,"metacognition_realexp","ah",85.36801247,1,"2013_Dec_04_1036",NA,NA
"161",1,"left",3,0,3,0,1,0,10,8,2,1.270619199,1,1,0.540712866,3,0.90522578,0.09,0.727272727,0.09,"metacognition_realexp","ah",85.36801247,1,"2013_Dec_04_1036",NA,NA
"162",1,"left",3,0,3,0,1,1,11,6,2,0.470707904,1,1,0.4936507,1,0.469905555,0.09,0.75,0.09,"metacognition_realexp","ah",85.36801247,1,"2013_Dec_04_1036",NA,NA
"163",2,"down",3,0,3,0,1,2,12,9,1,0.38834892,2,1,0.752457579,3,1.846256198,0.09,0.769230769,0.09,"metacognition_realexp","ah",85.36801247,1,"2013_Dec_04_1036",NA,NA
"164",1,"left",3,0,3,0,1,3,13,0,1,0.317777616,1,1,0.43480201,2,0.364053988,0.09,0.785714286,0.09,"metacognition_realexp","ah",85.36801247,1,"2013_Dec_04_1036",NA,NA
"165",2,"down",3,0,3,0,1,4,14,7,1,0.294198792,2,1,0.728939201,1,0.364018183,0.09,0.8,0.09,"metacognition_realexp","ah",85.36801247,1,"2013_Dec_04_1036",NA,NA
"166",2,"down",3,0,3,0,1,5,15,1,2,0.753041631,1,0,0.340663432,3,0.317013382,0.09,0.75,0.09,"metacognition_realexp","ah",85.36801247,1,"2013_Dec_04_1036",NA,NA
"167",1,"left",3,0,3,0,1,6,16,2,2,0.741213911,1,1,0.470082272,3,0.516408309,0.09,0.764705882,0.09,"metacognition_realexp","ah",85.36801247,1,"2013_Dec_04_1036",NA,NA
"168",1,"left",3,0,3,0,1,7,17,4,1,0.353121404,1,1,1.564084943,1,0.434749649,0.09,0.777777778,0.09,"metacognition_realexp","ah",85.36801247,1,"2013_Dec_04_1036",NA,NA
"169",2,"down",3,0,3,0,1,8,18,5,1,0.517734265,2,1,0.517182938,2,0.728731684,0.09,0.789473684,0.09,"metacognition_realexp","ah",85.36801247,1,"2013_Dec_04_1036",NA,NA
"170",2,"down",3,0,3,0,1,9,19,3,1,0.235400152,1,0,0.434798545,2,0.399405091,0.09,0.75,0.09,"metacognition_realexp","ah",85.36801247,1,"2013_Dec_04_1036",NA,NA
"171",2,"down",3,0,3,0,2,0,20,1,1,0.258933161,1,0,0.458420489,2,0.411083429,0.09,0.714285714,0.09,"metacognition_realexp","ah",85.36801247,1,"2013_Dec_04_1036",NA,NA
"172",1,"left",3,0,3,0,2,1,21,4,1,0.070683725,1,1,0.423015485,2,0.363516522,0.09,0.727272727,0.09,"metacognition_realexp","ah",85.36801247,1,"2013_Dec_04_1036",NA,NA
"173",1,"left",3,0,3,0,2,2,22,0,1,0.023671995,1,1,0.528929422,1,0.399350806,0.09,0.739130435,0.09,"metacognition_realexp","ah",85.36801247,1,"2013_Dec_04_1036",NA,NA
"174",1,"left",3,0,3,0,2,3,23,8,1,0.635378515,2,0,0.905333196,1,0.446435687,0.09,0.708333333,0.09,"metacognition_realexp","ah",85.36801247,1,"2013_Dec_04_1036",NA,NA
"175",1,"left",3,0,3,0,2,4,24,2,1,0.788387344,1,1,0.446507683,1,0.41113579,0.09,0.72,0.09,"metacognition_realexp","ah",85.36801247,1,"2013_Dec_04_1036",NA,NA
"176",2,"down",3,0,3,0,2,5,25,9,1,0.341287139,1,0,0.375996824,2,0.434660713,0.09,0.692307692,0.09,"metacognition_realexp","ah",85.36801247,1,"2013_Dec_04_1036",NA,NA
"177",2,"down",3,0,3,0,2,6,26,7,1,0.447151795,1,0,0.540659736,2,0.517006221,0.09,0.666666667,0.09,"metacognition_realexp","ah",85.36801247,1,"2013_Dec_04_1036",NA,NA
"178",2,"down",3,0,3,0,2,7,27,3,1,0.600111343,2,1,0.75248222,3,0.5875756,0.09,0.678571429,0.09,"metacognition_realexp","ah",85.36801247,1,"2013_Dec_04_1036",NA,NA
"179",1,"left",3,0,3,0,2,8,28,6,1,0.200107955,1,1,0.38788114,2,0.552277628,0.09,0.689655172,0.09,"metacognition_realexp","ah",85.36801247,1,"2013_Dec_04_1036",NA,NA
"180",2,"down",3,0,3,0,2,9,29,5,1,0.600061678,2,1,0.670122466,2,0.658151525,0.09,0.7,0.09,"metacognition_realexp","ah",85.36801247,1,"2013_Dec_04_1036",NA,NA
"181",2,"down",3,0,3,0,3,0,30,3,1,0.329506005,1,0,0.446583529,3,0.787550344,0.09,0.677419355,0.09,"metacognition_realexp","ah",85.36801247,1,"2013_Dec_04_1036",NA,NA
"182",2,"down",3,0,3,0,3,1,31,5,1,0.25888465,1,0,0.375913664,2,0.493571004,0.09,0.65625,0.09,"metacognition_realexp","ah",85.36801247,1,"2013_Dec_04_1036",NA,NA
"183",1,"left",3,0,3,0,3,2,32,6,1,0.294227668,1,1,0.375931759,2,0.59940255,0.09,0.666666667,0.09,"metacognition_realexp","ah",85.36801247,1,"2013_Dec_04_1036",NA,NA
"184",2,"down",3,0,3,0,3,3,33,1,1,0.32951332,1,0,0.37600491,2,1.105182044,0.09,0.647058824,0.09,"metacognition_realexp","ah",85.36801247,1,"2013_Dec_04_1036",NA,NA
"185",2,"down",3,0,3,0,3,4,34,9,2,0.353032853,2,1,0.764213303,3,0.611077808,0.09,0.657142857,0.09,"metacognition_realexp","ah",85.36801247,1,"2013_Dec_04_1036",NA,NA
"186",1,"left",3,0,3,0,3,5,35,0,1,0.294242298,1,1,0.328958143,2,0.458171776,0.09,0.666666667,0.09,"metacognition_realexp","ah",85.36801247,1,"2013_Dec_04_1036",NA,NA
"187",1,"left",3,0,3,0,3,6,36,8,2,0.364833622,1,1,0.42300971,2,1.140494646,0.09,0.675675676,0.09,"metacognition_realexp","ah",85.36801247,1,"2013_Dec_04_1036",NA,NA
"188",2,"down",3,0,3,0,3,7,37,7,2,0.8236164,1,0,0.3760334,1,0.364010098,0.09,0.657894737,0.09,"metacognition_realexp","ah",85.36801247,1,"2013_Dec_04_1036",NA,NA
"189",1,"left",3,0,3,0,3,8,38,4,2,0.364824382,1,1,0.258341409,1,0.246487894,0.09,0.666666667,0.09,"metacognition_realexp","ah",85.36801247,1,"2013_Dec_04_1036",NA,NA
"190",1,"left",3,0,3,0,3,9,39,2,2,0.32950793,1,1,0.493767356,2,0.469850884,0.09,0.675,0.09,"metacognition_realexp","ah",85.36801247,1,"2013_Dec_04_1036",NA,NA
"191",2,"down",3,0,3,0,4,0,40,1,1,0.376569711,2,1,0.646626803,2,0.669910714,0.09,0.682926829,0.09,"metacognition_realexp","ah",85.36801247,1,"2013_Dec_04_1036",NA,NA
"192",2,"down",3,0,3,0,4,1,41,9,1,0.353046328,1,0,0.634810634,2,0.811135713,0.09,0.666666667,0.09,"metacognition_realexp","ah",85.36801247,1,"2013_Dec_04_1036",NA,NA
"193",2,"down",3,0,3,0,4,2,42,7,1,0.76479004,2,1,0.952454653,2,0.575804476,0.09,0.674418605,0.09,"metacognition_realexp","ah",85.36801247,1,"2013_Dec_04_1036",NA,NA
"194",1,"left",3,0,3,0,4,3,43,0,1,0.306053462,1,1,0.48177755,2,0.881738587,0.09,0.681818182,0.09,"metacognition_realexp","ah",85.36801247,1,"2013_Dec_04_1036",NA,NA
"195",1,"left",3,0,3,0,4,4,44,6,1,0.258891195,1,1,0.387836094,3,0.716996365,0.09,0.688888889,0.09,"metacognition_realexp","ah",85.36801247,1,"2013_Dec_04_1036",NA,NA
"196",2,"down",3,0,3,0,4,5,45,3,1,0.753083981,1,0,0.505419514,1,0.999226141,0.09,0.673913043,0.09,"metacognition_realexp","ah",85.36801247,1,"2013_Dec_04_1036",NA,NA
"197",1,"left",3,0,3,0,4,6,46,4,1,1.423505596,2,0,0.728907631,2,0.52874077,0.09,0.659574468,0.09,"metacognition_realexp","ah",85.36801247,1,"2013_Dec_04_1036",NA,NA
"198",2,"down",3,0,3,0,4,7,47,5,2,1.411823023,2,1,0.55247013,3,0.364032813,0.09,0.666666667,0.09,"metacognition_realexp","ah",85.36801247,1,"2013_Dec_04_1036",NA,NA
"199",1,"left",3,0,3,0,4,8,48,2,1,0.294303899,1,1,0.481873416,1,0.293456889,0.09,0.673469388,0.09,"metacognition_realexp","ah",85.36801247,1,"2013_Dec_04_1036",NA,NA
"200",1,"left",3,0,3,0,4,9,49,8,1,0.564794506,1,1,0.446653215,1,0.363980838,0.09,0.68,0.09,"metacognition_realexp","ah",85.36801247,1,"2013_Dec_04_1036",NA,NA
"201",1,"left",4,0,4,0,0,0,0,0,1,0.341299074,1,1,0.352022601,2,0.516673577,0.09,1,0.09,"metacognition_realexp","ah",85.36801247,1,"2013_Dec_04_1036",NA,NA
"202",1,"left",4,0,4,0,0,1,1,6,2,0.811823331,2,0,0.69369359,3,0.834582095,0.09,0.5,0.09,"metacognition_realexp","ah",85.36801247,1,"2013_Dec_04_1036",NA,NA
"203",1,"left",4,0,4,0,0,2,2,2,2,0.470631673,1,1,0.399570258,3,0.364067849,0.09,0.666666667,0.09,"metacognition_realexp","ah",85.36801247,1,"2013_Dec_04_1036",NA,NA
"204",2,"down",4,0,4,0,0,3,3,9,2,0.858902437,2,1,0.787759787,2,0.611117079,0.09,0.75,0.09,"metacognition_realexp","ah",85.36801247,1,"2013_Dec_04_1036",NA,NA
"205",2,"down",4,0,4,0,0,4,4,7,1,0.353026693,1,0,0.528982168,1,0.293420699,0.09,0.6,0.09,"metacognition_realexp","ah",85.36801247,1,"2013_Dec_04_1036",NA,NA
"206",2,"down",4,0,4,0,0,5,5,5,2,0.447149485,2,1,0.517181398,2,0.481656658,0.09,0.666666667,0.09,"metacognition_realexp","ah",85.36801247,1,"2013_Dec_04_1036",NA,NA
"207",1,"left",4,0,4,0,0,6,6,8,1,0.294216118,1,1,0.328925033,1,0.458202191,0.09,0.714285714,0.09,"metacognition_realexp","ah",85.36801247,1,"2013_Dec_04_1036",NA,NA
"208",2,"down",4,0,4,0,0,7,7,3,1,0.211807854,1,0,0.305303859,2,0.505375624,0.09,0.625,0.09,"metacognition_realexp","ah",85.36801247,1,"2013_Dec_04_1036",NA,NA
"209",2,"down",4,0,4,0,0,8,8,1,2,0.353056723,2,1,0.658325932,3,0.540474549,0.09,0.666666667,0.09,"metacognition_realexp","ah",85.36801247,1,"2013_Dec_04_1036",NA,NA
"210",1,"left",4,0,4,0,0,9,9,4,1,0.364789732,1,1,0.328946978,2,0.564039512,0.09,0.7,0.09,"metacognition_realexp","ah",85.36801247,1,"2013_Dec_04_1036",NA,NA
"211",1,"left",4,0,4,0,1,0,10,0,1,0.494203951,1,1,0.352484992,1,0.4699121,0.09,0.727272727,0.09,"metacognition_realexp","ah",85.36801247,1,"2013_Dec_04_1036",NA,NA
"212",2,"down",4,0,4,0,1,1,11,7,2,0.317762986,2,1,0.446625494,2,0.446377936,0.09,0.75,0.09,"metacognition_realexp","ah",85.36801247,1,"2013_Dec_04_1036",NA,NA
"213",2,"down",4,0,4,0,1,2,12,1,2,0.070686035,2,1,0.552478985,1,0.775833121,0.09,0.769230769,0.09,"metacognition_realexp","ah",85.36801247,1,"2013_Dec_04_1036",NA,NA
"214",2,"down",4,0,4,0,1,3,13,3,1,0.258932776,1,0,0.352494617,2,0.469947135,0.09,0.714285714,0.09,"metacognition_realexp","ah",85.36801247,1,"2013_Dec_04_1036",NA,NA
"215",2,"down",4,0,4,0,1,4,14,5,2,0.917711087,2,1,1.6700266,1,0.669888383,0.09,0.733333333,0.09,"metacognition_realexp","ah",85.36801247,1,"2013_Dec_04_1036",NA,NA
"216",1,"left",4,0,4,0,1,5,15,6,1,0.329483289,1,1,0.376038405,2,0.422815283,0.09,0.75,0.09,"metacognition_realexp","ah",85.36801247,1,"2013_Dec_04_1036",NA,NA
"217",1,"left",4,0,4,0,1,6,16,2,2,0.529515784,1,1,0.505500365,2,0.575805631,0.09,0.764705882,0.09,"metacognition_realexp","ah",85.36801247,1,"2013_Dec_04_1036",NA,NA
"218",2,"down",4,0,4,0,1,7,17,9,1,0.882406185,2,1,0.75248453,2,1.12856952,0.09,0.777777778,0.09,"metacognition_realexp","ah",85.36801247,1,"2013_Dec_04_1036",NA,NA
"219",1,"left",4,0,4,0,1,8,18,4,1,0.353062113,1,1,0.528961763,1,0.446314796,0.09,0.789473684,0.09,"metacognition_realexp","ah",85.36801247,1,"2013_Dec_04_1036",NA,NA
"220",1,"left",4,0,4,0,1,9,19,8,2,0.364785882,2,0,0.528915947,3,0.65818117,0.09,0.75,0.09,"metacognition_realexp","ah",85.36801247,1,"2013_Dec_04_1036",NA,NA
"221",2,"down",4,0,4,0,2,0,20,9,2,0.623605081,2,1,0.62305337,2,0.493460893,0.09,0.761904762,0.09,"metacognition_realexp","ah",85.36801247,1,"2013_Dec_04_1036",NA,NA
"222",1,"left",4,0,4,0,2,1,21,2,1,0.282469249,1,1,0.270119078,3,0.328778346,0.09,0.772727273,0.09,"metacognition_realexp","ah",85.36801247,1,"2013_Dec_04_1036",NA,NA
"223",2,"down",4,0,4,0,2,2,22,5,1,0.458962575,2,1,0.30543091,3,0.269909636,0.09,0.782608696,0.09,"metacognition_realexp","ah",85.36801247,1,"2013_Dec_04_1036",NA,NA
"224",1,"left",4,0,4,0,2,3,23,6,1,0.282526614,1,1,0.458302677,2,0.375783532,0.09,0.791666667,0.09,"metacognition_realexp","ah",85.36801247,1,"2013_Dec_04_1036",NA,NA
"225",2,"down",4,0,4,0,2,4,24,7,2,0.353139114,2,1,1.011177832,2,0.658099164,0.09,0.8,0.09,"metacognition_realexp","ah",85.36801247,1,"2013_Dec_04_1036",NA,NA
"226",2,"down",4,0,4,0,2,5,25,3,2,0.353035933,2,1,1.305217618,3,0.36418566,0.09,0.807692308,0.09,"metacognition_realexp","ah",85.36801247,1,"2013_Dec_04_1036",NA,NA
"227",1,"left",4,0,4,0,2,6,26,4,1,0.964790579,1,1,0.505400649,2,0.434591412,0.09,0.814814815,0.09,"metacognition_realexp","ah",85.36801247,1,"2013_Dec_04_1036",NA,NA
"228",1,"left",4,0,4,0,2,7,27,8,1,0.447172586,1,1,0.576006219,2,0.352265154,0.09,0.821428571,0.09,"metacognition_realexp","ah",85.36801247,1,"2013_Dec_04_1036",NA,NA
"229",1,"left",4,0,4,0,2,8,28,0,1,0.317757981,1,1,0.376031475,2,0.787537254,0.09,0.827586207,0.09,"metacognition_realexp","ah",85.36801247,1,"2013_Dec_04_1036",NA,NA
"230",2,"down",4,0,4,0,2,9,29,1,2,0.435368736,2,1,0.658473003,3,0.646200988,0.09,0.833333333,0.09,"metacognition_realexp","ah",85.36801247,1,"2013_Dec_04_1036",NA,NA
"231",2,"down",4,0,4,0,3,0,30,7,1,0.305935266,1,0,0.317219745,2,0.505222392,0.09,0.806451613,0.09,"metacognition_realexp","ah",85.36801247,1,"2013_Dec_04_1036",NA,NA
"232",1,"left",4,0,4,0,3,1,31,8,2,1.447125615,1,1,0.458299982,2,1.128758942,0.09,0.8125,0.09,"metacognition_realexp","ah",85.36801247,1,"2013_Dec_04_1036",NA,NA
"233",1,"left",4,0,4,0,3,2,32,4,2,0.364833622,2,0,0.68183738,3,0.316974497,0.09,0.787878788,0.09,"metacognition_realexp","ah",85.36801247,1,"2013_Dec_04_1036",NA,NA
"234",2,"down",4,0,4,0,3,3,33,1,2,0.564801051,1,0,0.764249494,1,0.305288459,0.09,0.764705882,0.09,"metacognition_realexp","ah",85.36801247,1,"2013_Dec_04_1036",NA,NA
"235",1,"left",4,0,4,0,3,4,34,6,1,0.341322559,1,1,0.458311147,2,0.564025652,0.09,0.771428571,0.09,"metacognition_realexp","ah",85.36801247,1,"2013_Dec_04_1036",NA,NA
"236",2,"down",4,0,4,0,3,5,35,5,1,0.776474538,2,1,0.68189513,3,0.422220066,0.09,0.777777778,0.09,"metacognition_realexp","ah",85.36801247,1,"2013_Dec_04_1036",NA,NA
"237",2,"down",4,0,4,0,3,6,36,9,2,0.529592785,1,0,0.48181143,1,0.399273035,0.09,0.756756757,0.09,"metacognition_realexp","ah",85.36801247,1,"2013_Dec_04_1036",NA,NA
"238",1,"left",4,0,4,0,3,7,37,2,1,0.517509807,1,1,0.445856641,1,0.376756053,0.09,0.763157895,0.09,"metacognition_realexp","ah",85.36801247,1,"2013_Dec_04_1036",NA,NA
"239",2,"down",4,0,4,0,3,8,38,3,1,0.306955528,2,1,0.528984863,3,0.411053784,0.09,0.769230769,0.09,"metacognition_realexp","ah",85.36801247,1,"2013_Dec_04_1036",NA,NA
"240",1,"left",4,0,4,0,3,9,39,0,2,0.317830747,1,1,0.328842257,2,0.328778346,0.09,0.775,0.09,"metacognition_realexp","ah",85.36801247,1,"2013_Dec_04_1036",NA,NA
"241",2,"down",4,0,4,0,4,0,40,1,1,0.329506005,2,1,0.481861866,3,0.611098983,0.09,0.780487805,0.09,"metacognition_realexp","ah",85.36801247,1,"2013_Dec_04_1036",NA,NA
"242",2,"down",4,0,4,0,4,1,41,7,2,1.176529132,2,1,0.552486301,3,0.269845725,0.09,0.785714286,0.09,"metacognition_realexp","ah",85.36801247,1,"2013_Dec_04_1036",NA,NA
"243",2,"down",4,0,4,0,4,2,42,5,2,0.329664627,1,0,0.305446696,2,0.552143262,0.09,0.76744186,0.09,"metacognition_realexp","ah",85.36801247,1,"2013_Dec_04_1036",NA,NA
"244",1,"left",4,0,4,0,4,3,43,2,2,0.400034188,1,1,0.364271131,3,0.328801447,0.09,0.772727273,0.09,"metacognition_realexp","ah",85.36801247,1,"2013_Dec_04_1036",NA,NA
"245",1,"left",4,0,4,0,4,4,44,4,2,0.44715603,1,1,0.364283451,2,0.505161561,0.09,0.777777778,0.09,"metacognition_realexp","ah",85.36801247,1,"2013_Dec_04_1036",NA,NA
"246",1,"left",4,0,4,0,4,5,45,8,2,0.517728105,2,0,0.717194257,3,0.375776987,0.09,0.760869565,0.09,"metacognition_realexp","ah",85.36801247,1,"2013_Dec_04_1036",NA,NA
"247",2,"down",4,0,4,0,4,6,46,3,2,0.517710009,1,0,0.470149262,2,0.493490153,0.09,0.744680851,0.09,"metacognition_realexp","ah",85.36801247,1,"2013_Dec_04_1036",NA,NA
"248",2,"down",4,0,4,0,4,7,47,9,1,0.435363346,2,1,0.658380602,3,0.434636458,0.09,0.75,0.09,"metacognition_realexp","ah",85.36801247,1,"2013_Dec_04_1036",NA,NA
"249",1,"left",4,0,4,0,4,8,48,0,1,0.729482827,1,1,0.364283066,2,0.740475473,0.09,0.755102041,0.09,"metacognition_realexp","ah",85.36801247,1,"2013_Dec_04_1036",NA,NA
"250",1,"left",4,0,4,0,4,9,49,6,1,0.482459778,1,1,0.3641949,1,0.481705939,0.09,0.76,0.09,"metacognition_realexp","ah",85.36801247,1,"2013_Dec_04_1036",NA,NA
"251",2,"down",5,0,5,0,0,0,0,3,1,0.270663089,2,1,0.399321545,1,0.293322522,0.09,1,0.09,"metacognition_realexp","ah",85.36801247,1,"2013_Dec_04_1036",NA,NA
"252",2,"down",5,0,5,0,0,1,1,7,1,0.294283108,2,1,0.72886374,1,0.269926576,0.09,1,0.09,"metacognition_realexp","ah",85.36801247,1,"2013_Dec_04_1036",NA,NA
"253",1,"left",5,0,5,0,0,2,2,4,1,0.505989706,2,0,0.658329782,1,0.317014537,0.09,0.666666667,0.09,"metacognition_realexp","ah",85.36801247,1,"2013_Dec_04_1036",NA,NA
"254",1,"left",5,0,5,0,0,3,3,8,2,0.223688319,2,0,0.481843771,1,0.881658121,0.09,0.5,0.09,"metacognition_realexp","ah",85.36801247,1,"2013_Dec_04_1036",NA,NA
"255",1,"left",5,0,5,0,0,4,4,2,2,0.223647123,1,1,0.269601247,3,0.399854006,0.09,0.6,0.09,"metacognition_realexp","ah",85.36801247,1,"2013_Dec_04_1036",NA,NA
"256",1,"left",5,0,5,0,0,5,5,0,2,0.117761292,1,1,0.258384914,2,0.516961946,0.09,0.666666667,0.09,"metacognition_realexp","ah",85.36801247,1,"2013_Dec_04_1036",NA,NA
"257",2,"down",5,0,5,0,0,6,6,5,2,0.541269968,1,0,0.211332758,2,0.71693977,0.09,0.571428571,0.09,"metacognition_realexp","ah",85.36801247,1,"2013_Dec_04_1036",NA,NA
"258",2,"down",5,0,5,0,0,7,7,1,1,1.282384163,2,1,0.599204658,2,0.434938686,0.09,0.625,0.09,"metacognition_realexp","ah",85.36801247,1,"2013_Dec_04_1036",NA,NA
"259",2,"down",5,0,5,0,0,8,8,9,2,0.352970867,2,1,0.505394104,2,0.52871613,0.09,0.666666667,0.09,"metacognition_realexp","ah",85.36801247,1,"2013_Dec_04_1036",NA,NA
"260",1,"left",5,0,5,0,0,9,9,6,2,0.447203386,2,0,0.458341563,2,0.552262613,0.09,0.6,0.09,"metacognition_realexp","ah",85.36801247,1,"2013_Dec_04_1036",NA,NA
"261",2,"down",5,0,5,0,1,0,10,3,2,0.282453464,1,0,0.31721243,3,0.258149292,0.09,0.545454545,0.09,"metacognition_realexp","ah",85.36801247,1,"2013_Dec_04_1036",NA,NA
"262",1,"left",5,0,5,0,1,1,11,0,1,0.38832813,1,1,0.540703626,1,0.458159456,0.09,0.583333333,0.09,"metacognition_realexp","ah",85.36801247,1,"2013_Dec_04_1036",NA,NA
"263",1,"left",5,0,5,0,1,2,12,6,2,0.235398612,2,0,0.458363123,2,0.858140899,0.09,0.538461538,0.09,"metacognition_realexp","ah",85.36801247,1,"2013_Dec_04_1036",NA,NA
"264",2,"down",5,0,5,0,1,3,13,9,2,0.329508315,2,1,0.505416819,3,0.434655323,0.09,0.571428571,0.09,"metacognition_realexp","ah",85.36801247,1,"2013_Dec_04_1036",NA,NA
"265",2,"down",5,0,5,0,1,4,14,5,2,0.247182827,2,1,0.5283215,1,0.576345022,0.09,0.6,0.09,"metacognition_realexp","ah",85.36801247,1,"2013_Dec_04_1036",NA,NA
"266",1,"left",5,0,5,0,1,5,15,4,2,0.258838834,1,1,0.270146028,2,0.328767181,0.09,0.625,0.09,"metacognition_realexp","ah",85.36801247,1,"2013_Dec_04_1036",NA,NA
"267",2,"down",5,0,5,0,1,6,16,7,2,0.223618248,2,1,0.552497466,3,0.411091129,0.09,0.647058824,0.09,"metacognition_realexp","ah",85.36801247,1,"2013_Dec_04_1036",NA,NA
"268",1,"left",5,0,5,0,1,7,17,2,1,0.270736625,2,0,0.634672417,1,1.081883503,0.09,0.611111111,0.09,"metacognition_realexp","ah",85.36801247,1,"2013_Dec_04_1036",NA,NA
"269",1,"left",5,0,5,0,1,8,18,8,1,0.223654054,1,1,0.576022389,3,0.328704041,0.09,0.631578947,0.09,"metacognition_realexp","ah",85.36801247,1,"2013_Dec_04_1036",NA,NA
"270",2,"down",5,0,5,0,1,9,19,1,1,0.482442452,2,1,0.552452805,3,0.834621366,0.09,0.65,0.09,"metacognition_realexp","ah",85.36801247,1,"2013_Dec_04_1036",NA,NA
"271",1,"left",5,0,5,0,2,0,20,8,2,0.258931621,2,0,0.470096132,2,0.681703783,0.09,0.619047619,0.09,"metacognition_realexp","ah",85.36801247,1,"2013_Dec_04_1036",NA,NA
"272",1,"left",5,0,5,0,2,1,21,6,1,0.388245739,1,1,0.423356984,2,0.457108394,0.09,0.636363636,0.09,"metacognition_realexp","ah",85.36801247,1,"2013_Dec_04_1036",NA,NA
"273",2,"down",5,0,5,0,2,2,22,7,1,0.776564629,2,1,0.446616254,2,0.575713615,0.09,0.652173913,0.09,"metacognition_realexp","ah",85.36801247,1,"2013_Dec_04_1036",NA,NA
"274",2,"down",5,0,5,0,2,3,23,3,1,0.600073998,2,1,0.670079346,2,0.540539229,0.09,0.666666667,0.09,"metacognition_realexp","ah",85.36801247,1,"2013_Dec_04_1036",NA,NA
"275",1,"left",5,0,5,0,2,4,24,2,1,0.364810137,1,1,0.376068435,2,0.469786588,0.09,0.68,0.09,"metacognition_realexp","ah",85.36801247,1,"2013_Dec_04_1036",NA,NA
"276",2,"down",5,0,5,0,2,5,25,5,1,0.564444152,2,1,0.776138044,2,0.387534636,0.09,0.692307692,0.09,"metacognition_realexp","ah",85.36801247,1,"2013_Dec_04_1036",NA,NA
"277",1,"left",5,0,5,0,2,6,26,0,1,0.364850562,1,1,0.352451111,1,0.481682839,0.09,0.703703704,0.09,"metacognition_realexp","ah",85.36801247,1,"2013_Dec_04_1036",NA,NA
"278",2,"down",5,0,5,0,2,7,27,1,2,0.176422485,2,1,0.446559659,2,0.517032787,0.09,0.714285714,0.09,"metacognition_realexp","ah",85.36801247,1,"2013_Dec_04_1036",NA,NA
"279",2,"down",5,0,5,0,2,8,28,9,2,0.14127197,2,1,0.364239561,1,0.481733274,0.09,0.724137931,0.09,"metacognition_realexp","ah",85.36801247,1,"2013_Dec_04_1036",NA,NA
"280",1,"left",5,0,5,0,2,9,29,4,1,0.247156646,1,1,0.293666331,1,0.305297699,0.09,0.733333333,0.09,"metacognition_realexp","ah",85.36801247,1,"2013_Dec_04_1036",NA,NA
"281",2,"down",5,0,5,0,3,0,30,5,2,0.02370857,2,1,0.458244157,1,0.411120775,0.09,0.741935484,0.09,"metacognition_realexp","ah",85.36801247,1,"2013_Dec_04_1036",NA,NA
"282",1,"left",5,0,5,0,3,1,31,2,1,0.270797456,1,1,0.328852267,2,0.611056248,0.09,0.75,0.09,"metacognition_realexp","ah",85.36801247,1,"2013_Dec_04_1036",NA,NA
"283",1,"left",5,0,5,0,3,2,32,0,2,0.423604157,2,0,0.423037816,1,0.728701654,0.09,0.727272727,0.09,"metacognition_realexp","ah",85.36801247,1,"2013_Dec_04_1036",NA,NA
"284",1,"left",5,0,5,0,3,3,33,8,2,0.423636882,2,0,0.470092667,2,0.72881292,0.09,0.705882353,0.09,"metacognition_realexp","ah",85.36801247,1,"2013_Dec_04_1036",NA,NA
"285",2,"down",5,0,5,0,3,4,34,1,2,0.341426126,2,1,0.375849753,1,0.610121842,0.09,0.714285714,0.09,"metacognition_realexp","ah",85.36801247,1,"2013_Dec_04_1036",NA,NA
"286",1,"left",5,0,5,0,3,5,35,4,2,0.317757211,2,0,0.423090176,1,0.928681787,0.09,0.694444444,0.09,"metacognition_realexp","ah",85.36801247,1,"2013_Dec_04_1036",NA,NA
"287",2,"down",5,0,5,0,3,6,36,9,2,0.105994018,1,0,0.317182784,2,0.340547931,0.09,0.675675676,0.09,"metacognition_realexp","ah",85.36801247,1,"2013_Dec_04_1036",NA,NA
"288",1,"left",5,0,5,0,3,7,37,6,2,0.411848048,1,1,0.481887661,2,0.634648547,0.09,0.684210526,0.09,"metacognition_realexp","ah",85.36801247,1,"2013_Dec_04_1036",NA,NA
"289",2,"down",5,0,5,0,3,8,38,3,1,0.600082853,2,1,0.728894156,3,0.316999137,0.09,0.692307692,0.09,"metacognition_realexp","ah",85.36801247,1,"2013_Dec_04_1036",NA,NA
"290",2,"down",5,0,5,0,3,9,39,7,2,0.447187986,2,1,0.917131656,2,0.64637116,0.09,0.7,0.09,"metacognition_realexp","ah",85.36801247,1,"2013_Dec_04_1036",NA,NA
"291",2,"down",5,0,5,0,4,0,40,5,1,0.258927385,2,1,0.775971722,2,0.387582377,0.09,0.707317073,0.09,"metacognition_realexp","ah",85.36801247,1,"2013_Dec_04_1036",NA,NA
"292",2,"down",5,0,5,0,4,1,41,7,1,0.800072227,2,1,0.658278961,1,0.258315614,0.09,0.714285714,0.09,"metacognition_realexp","ah",85.36801247,1,"2013_Dec_04_1036",NA,NA
"293",1,"left",5,0,5,0,4,2,42,8,1,0.282488499,1,1,0.399521748,3,0.364068234,0.09,0.720930233,0.09,"metacognition_realexp","ah",85.36801247,1,"2013_Dec_04_1036",NA,NA
"294",1,"left",5,0,5,0,4,3,43,6,1,0.32951563,1,1,0.49366533,3,0.563442755,0.09,0.727272727,0.09,"metacognition_realexp","ah",85.36801247,1,"2013_Dec_04_1036",NA,NA
"295",2,"down",5,0,5,0,4,4,44,3,2,0.482457853,2,1,0.917127036,2,0.764036586,0.09,0.733333333,0.09,"metacognition_realexp","ah",85.36801247,1,"2013_Dec_04_1036",NA,NA
"296",1,"left",5,0,5,0,4,5,45,2,1,0.247252512,1,1,0.446484198,2,0.422888434,0.09,0.739130435,0.09,"metacognition_realexp","ah",85.36801247,1,"2013_Dec_04_1036",NA,NA
"297",1,"left",5,0,5,0,4,6,46,0,1,0.353098689,1,1,0.481784865,2,0.387590462,0.09,0.744680851,0.09,"metacognition_realexp","ah",85.36801247,1,"2013_Dec_04_1036",NA,NA
"298",2,"down",5,0,5,0,4,7,47,9,1,0.306011882,2,1,0.587757708,2,0.364044363,0.09,0.75,0.09,"metacognition_realexp","ah",85.36801247,1,"2013_Dec_04_1036",NA,NA
"299",2,"down",5,0,5,0,4,8,48,1,2,0.3177241,2,1,0.705424673,2,0.41110037,0.09,0.755102041,0.09,"metacognition_realexp","ah",85.36801247,1,"2013_Dec_04_1036",NA,NA
"300",1,"left",5,0,5,0,4,9,49,4,1,0.305845945,1,1,0.364363147,2,0.446412202,0.09,0.76,0.09,"metacognition_realexp","ah",85.36801247,1,"2013_Dec_04_1036",NA,NA
"301",1,"left",6,0,6,0,0,0,0,2,1,0.258013385,1,1,0.353249995,2,0.281415492,0.09,1,0.09,"metacognition_realexp","ah",85.36801247,1,"2013_Dec_04_1036",NA,NA
"302",2,"down",6,0,6,0,0,1,1,9,1,0.317722175,2,1,0.587796208,2,0.41111423,0.09,1,0.09,"metacognition_realexp","ah",85.36801247,1,"2013_Dec_04_1036",NA,NA
"303",2,"down",6,0,6,0,0,2,2,1,1,0.835392914,2,1,0.375986429,3,0.845777253,0.09,1,0.09,"metacognition_realexp","ah",85.36801247,1,"2013_Dec_04_1036",NA,NA
"304",2,"down",6,0,6,0,0,3,3,7,1,0.411878078,2,1,0.505404114,3,0.540538459,0.09,1,0.09,"metacognition_realexp","ah",85.36801247,1,"2013_Dec_04_1036",NA,NA
"305",1,"left",6,0,6,0,0,4,4,0,1,0.294189937,1,1,0.399584118,3,0.305245723,0.09,1,0.09,"metacognition_realexp","ah",85.36801247,1,"2013_Dec_04_1036",NA,NA
"306",1,"left",6,0,6,0,0,5,5,4,1,0.305994942,1,1,0.446660145,3,0.352179298,0.09,1,0.09,"metacognition_realexp","ah",85.36801247,1,"2013_Dec_04_1036",NA,NA
"307",2,"down",6,0,6,0,0,6,6,3,1,0.364853643,2,1,0.599516897,3,0.293431479,0.09,1,0.09,"metacognition_realexp","ah",85.36801247,1,"2013_Dec_04_1036",NA,NA
"308",2,"down",6,0,6,0,0,7,7,5,1,0.294276563,2,1,0.799450445,3,0.28169154,0.09,1,0.09,"metacognition_realexp","ah",85.36801247,1,"2013_Dec_04_1036",NA,NA
"309",1,"left",6,0,6,0,0,8,8,8,1,0.258933161,1,1,0.481875341,3,0.375789307,0.09,1,0.09,"metacognition_realexp","ah",85.36801247,1,"2013_Dec_04_1036",NA,NA
"310",1,"left",6,0,6,0,0,9,9,6,1,0.25891853,1,1,0.37600491,3,0.434600652,0.09,1,0.09,"metacognition_realexp","ah",85.36801247,1,"2013_Dec_04_1036",NA,NA
"311",2,"down",6,0,6,0,1,0,10,7,1,0.376538526,2,1,0.705406578,3,0.305224548,0.09,1,0.09,"metacognition_realexp","ah",85.36801247,1,"2013_Dec_04_1036",NA,NA
"312",1,"left",6,0,6,0,1,1,11,8,1,0.294222278,1,1,0.411277472,3,0.29354698,0.09,1,0.09,"metacognition_realexp","ah",85.36801247,1,"2013_Dec_04_1036",NA,NA
"313",2,"down",6,0,6,0,1,2,12,3,1,0.658905748,2,1,0.587758478,3,0.293471904,0.09,1,0.09,"metacognition_realexp","ah",85.36801247,1,"2013_Dec_04_1036",NA,NA
"314",2,"down",6,0,6,0,1,3,13,9,1,1.18826445,2,1,0.599533067,2,0.317033403,0.09,1,0.09,"metacognition_realexp","ah",85.36801247,1,"2013_Dec_04_1036",NA,NA
"315",2,"down",6,0,6,0,1,4,14,5,1,1.329448639,2,1,0.470088817,2,0.799351884,0.09,1,0.09,"metacognition_realexp","ah",85.36801247,1,"2013_Dec_04_1036",NA,NA
"316",2,"down",6,0,6,0,1,5,15,1,1,0.423640347,2,1,0.470139637,1,0.411086894,0.09,1,0.09,"metacognition_realexp","ah",85.36801247,1,"2013_Dec_04_1036",NA,NA
"317",1,"left",6,0,6,0,1,6,16,0,1,0.270683109,1,1,0.470169283,3,0.421895508,0.09,1,0.09,"metacognition_realexp","ah",85.36801247,1,"2013_Dec_04_1036",NA,NA
"318",1,"left",6,0,6,0,1,7,17,6,1,0.270680799,1,1,0.352483837,2,0.340542155,0.09,1,0.09,"metacognition_realexp","ah",85.36801247,1,"2013_Dec_04_1036",NA,NA
"319",1,"left",6,0,6,0,1,8,18,4,1,0.247140476,1,1,0.505403729,2,0.281748521,0.09,1,0.09,"metacognition_realexp","ah",85.36801247,1,"2013_Dec_04_1036",NA,NA
"320",1,"left",6,0,6,0,1,9,19,2,1,0.211924895,1,1,0.398934231,2,0.317539298,0.09,1,0.09,"metacognition_realexp","ah",85.36801247,1,"2013_Dec_04_1036",NA,NA
"321",2,"down",6,0,6,0,2,0,20,3,1,0.317988598,2,1,0.54056695,3,0.3286332,0.09,1,0.09,"metacognition_realexp","ah",85.36801247,1,"2013_Dec_04_1036",NA,NA
"322",1,"left",6,0,6,0,2,1,21,6,1,0.294201102,1,1,0.423093256,3,0.446407197,0.09,1,0.09,"metacognition_realexp","ah",85.36801247,1,"2013_Dec_04_1036",NA,NA
"323",2,"down",6,0,6,0,2,2,22,9,1,0.341291759,2,1,0.340679602,3,0.293520415,0.09,1,0.09,"metacognition_realexp","ah",85.36801247,1,"2013_Dec_04_1036",NA,NA
"324",2,"down",6,0,6,0,2,3,23,7,1,0.423604542,2,1,0.328943513,3,0.258173162,0.09,1,0.09,"metacognition_realexp","ah",85.36801247,1,"2013_Dec_04_1036",NA,NA
"325",1,"left",6,0,6,0,2,4,24,2,1,0.306002257,1,1,0.717124572,3,0.516991591,0.09,1,0.09,"metacognition_realexp","ah",85.36801247,1,"2013_Dec_04_1036",NA,NA
"326",1,"left",6,0,6,0,2,5,25,0,1,0.305978772,1,1,0.50544454,3,0.399315,0.09,1,0.09,"metacognition_realexp","ah",85.36801247,1,"2013_Dec_04_1036",NA,NA
"327",2,"down",6,0,6,0,2,6,26,1,1,1.176504106,2,1,0.505429524,3,0.317044568,0.09,1,0.09,"metacognition_realexp","ah",85.36801247,1,"2013_Dec_04_1036",NA,NA
"328",1,"left",6,0,6,0,2,7,27,4,1,0.211895635,1,1,0.341089632,3,0.316589493,0.09,1,0.09,"metacognition_realexp","ah",85.36801247,1,"2013_Dec_04_1036",NA,NA
"329",1,"left",6,0,6,0,2,8,28,8,1,0.282185501,1,1,0.375923674,3,0.269832635,0.09,1,0.09,"metacognition_realexp","ah",85.36801247,1,"2013_Dec_04_1036",NA,NA
"330",2,"down",6,0,6,0,2,9,29,5,1,0.529543504,2,1,0.24658453,3,0.234643234,0.09,1,0.09,"metacognition_realexp","ah",85.36801247,1,"2013_Dec_04_1036",NA,NA
"331",1,"left",6,0,6,0,3,0,30,2,1,0.294246148,1,1,0.376098851,3,0.540361742,0.09,1,0.09,"metacognition_realexp","ah",85.36801247,1,"2013_Dec_04_1036",NA,NA
"332",2,"down",6,0,6,0,3,1,31,5,1,0.306031132,2,1,0.458386993,3,0.26989,0.09,1,0.09,"metacognition_realexp","ah",85.36801247,1,"2013_Dec_04_1036",NA,NA
"333",1,"left",6,0,6,0,3,2,32,6,1,0.258074986,1,1,0.318015934,2,0.316962947,0.09,1,0.09,"metacognition_realexp","ah",85.36801247,1,"2013_Dec_04_1036",NA,NA
"334",1,"left",6,0,6,0,3,3,33,0,1,0.200139911,1,1,0.293510405,3,0.646519002,0.09,1,0.09,"metacognition_realexp","ah",85.36801247,1,"2013_Dec_04_1036",NA,NA
"335",2,"down",6,0,6,0,3,4,34,1,1,0.37651658,2,1,0.328934658,3,0.211101756,0.09,1,0.09,"metacognition_realexp","ah",85.36801247,1,"2013_Dec_04_1036",NA,NA
"336",2,"down",6,0,6,0,3,5,35,9,2,0.988302797,2,1,0.811271619,2,0.634625062,0.09,1,0.09,"metacognition_realexp","ah",85.36801247,1,"2013_Dec_04_1036",NA,NA
"337",1,"left",6,0,6,0,3,6,36,4,1,0.365389954,1,1,0.411294412,2,0.834672571,0.09,1,0.09,"metacognition_realexp","ah",85.36801247,1,"2013_Dec_04_1036",NA,NA
"338",2,"down",6,0,6,0,3,7,37,3,1,0.729478977,2,1,0.481936557,2,0.446338281,0.09,1,0.09,"metacognition_realexp","ah",85.36801247,1,"2013_Dec_04_1036",NA,NA
"339",1,"left",6,0,6,0,3,8,38,8,1,0.282430748,1,1,0.423081706,3,0.363514597,0.09,1,0.09,"metacognition_realexp","ah",85.36801247,1,"2013_Dec_04_1036",NA,NA
"340",2,"down",6,0,6,0,3,9,39,7,1,0.38836201,2,1,0.352445721,3,0.222895595,0.09,1,0.09,"metacognition_realexp","ah",85.36801247,1,"2013_Dec_04_1036",NA,NA
"341",2,"down",6,0,6,0,4,0,40,5,2,0.376568171,2,1,1.387710583,2,0.90519113,0.09,1,0.09,"metacognition_realexp","ah",85.36801247,1,"2013_Dec_04_1036",NA,NA
"342",1,"left",6,0,6,0,4,1,41,2,2,0.458918299,1,1,0.481914996,3,0.646411971,0.09,1,0.09,"metacognition_realexp","ah",85.36801247,1,"2013_Dec_04_1036",NA,NA
"343",1,"left",6,0,6,0,4,2,42,8,1,0.376574331,1,1,0.399541768,1,0.375812022,0.09,1,0.09,"metacognition_realexp","ah",85.36801247,1,"2013_Dec_04_1036",NA,NA
"344",1,"left",6,0,6,0,4,3,43,0,2,0.294180697,1,1,0.36422031,2,0.622910533,0.09,1,0.09,"metacognition_realexp","ah",85.36801247,1,"2013_Dec_04_1036",NA,NA
"345",2,"down",6,0,6,0,4,4,44,9,2,0.400125049,2,1,0.575978883,3,0.317014537,0.09,1,0.09,"metacognition_realexp","ah",85.36801247,1,"2013_Dec_04_1036",NA,NA
"346",2,"down",6,0,6,0,4,5,45,7,2,0.400105799,2,1,0.658334402,3,0.258164692,0.09,1,0.09,"metacognition_realexp","ah",85.36801247,1,"2013_Dec_04_1036",NA,NA
"347",1,"left",6,0,6,0,4,6,46,6,2,0.435464602,1,1,0.411273236,3,0.375776602,0.09,1,0.09,"metacognition_realexp","ah",85.36801247,1,"2013_Dec_04_1036",NA,NA
"348",2,"down",6,0,6,0,4,7,47,1,1,0.353062113,2,1,0.458333093,2,0.470292869,0.09,1,0.09,"metacognition_realexp","ah",85.36801247,1,"2013_Dec_04_1036",NA,NA
"349",2,"down",6,0,6,0,4,8,48,3,1,0.788269532,2,1,0.540741742,2,0.587641436,0.09,1,0.09,"metacognition_realexp","ah",85.36801247,1,"2013_Dec_04_1036",NA,NA
"350",1,"left",6,0,6,0,4,9,49,4,1,0.575915743,1,1,0.341220148,2,0.716431564,0.09,1,0.09,"metacognition_realexp","ah",85.36801247,1,"2013_Dec_04_1036",NA,NA
"351",1,"left",7,0,7,0,0,0,0,0,1,0.376597046,1,1,0.434596802,2,0.481441056,0.09,1,0.09,"metacognition_realexp","ah",85.36801247,1,"2013_Dec_04_1036",NA,NA
"352",1,"left",7,0,7,0,0,1,1,4,2,0.505986626,1,1,0.387797209,2,0.78758769,0.09,1,0.09,"metacognition_realexp","ah",85.36801247,1,"2013_Dec_04_1036",NA,NA
"353",1,"left",7,0,7,0,0,2,2,2,2,0.341272124,1,1,0.458372363,3,0.269965461,0.09,1,0.09,"metacognition_realexp","ah",85.36801247,1,"2013_Dec_04_1036",NA,NA
"354",1,"left",7,0,7,0,0,3,3,8,1,0.141337036,1,1,0.387732143,2,0.375879398,0.09,1,0.09,"metacognition_realexp","ah",85.36801247,1,"2013_Dec_04_1036",NA,NA
"355",2,"down",7,0,7,0,0,4,4,9,1,0.376568556,2,1,0.528900932,3,0.246418208,0.09,1,0.09,"metacognition_realexp","ah",85.36801247,1,"2013_Dec_04_1036",NA,NA
"356",2,"down",7,0,7,0,0,5,5,5,2,0.364862883,2,1,1.046602471,3,0.340358508,0.09,1,0.09,"metacognition_realexp","ah",85.36801247,1,"2013_Dec_04_1036",NA,NA
"357",2,"down",7,0,7,0,0,6,6,7,1,0.705823153,2,1,0.517191023,2,0.41111731,0.09,1,0.09,"metacognition_realexp","ah",85.36801247,1,"2013_Dec_04_1036",NA,NA
"358",2,"down",7,0,7,0,0,7,7,3,1,0.376524665,2,1,0.305416665,3,0.246391643,0.09,1,0.09,"metacognition_realexp","ah",85.36801247,1,"2013_Dec_04_1036",NA,NA
"359",2,"down",7,0,7,0,0,8,8,1,1,0.364771637,2,1,0.446635889,3,0.175740643,0.09,1,0.09,"metacognition_realexp","ah",85.36801247,1,"2013_Dec_04_1036",NA,NA
"360",1,"left",7,0,7,0,0,9,9,6,1,0.353054028,1,1,0.55153303,2,0.553262469,0.09,1,0.09,"metacognition_realexp","ah",85.36801247,1,"2013_Dec_04_1036",NA,NA
"361",2,"down",7,0,7,0,1,0,10,1,1,0.623580826,2,1,0.305448236,2,0.634645852,0.09,1,0.09,"metacognition_realexp","ah",85.36801247,1,"2013_Dec_04_1036",NA,NA
"362",1,"left",7,0,7,0,1,1,11,6,1,0.094222509,1,1,0.399519823,3,0.740620619,0.09,1,0.09,"metacognition_realexp","ah",85.36801247,1,"2013_Dec_04_1036",NA,NA
"363",1,"left",7,0,7,0,1,2,12,8,2,0.494226282,1,1,0.340697312,3,0.340556401,0.09,1,0.09,"metacognition_realexp","ah",85.36801247,1,"2013_Dec_04_1036",NA,NA
"364",1,"left",7,0,7,0,1,3,13,2,2,0.658881878,1,1,0.481868026,3,0.258162767,0.09,1,0.09,"metacognition_realexp","ah",85.36801247,1,"2013_Dec_04_1036",NA,NA
"365",2,"down",7,0,7,0,1,4,14,5,1,0.564787961,2,1,0.423046671,2,0.399818201,0.09,1,0.09,"metacognition_realexp","ah",85.36801247,1,"2013_Dec_04_1036",NA,NA
"366",2,"down",7,0,7,0,1,5,15,3,2,0.458933315,1,0,0.364252651,2,0.39930884,0.09,0.9375,0.09,"metacognition_realexp","ah",85.36801247,1,"2013_Dec_04_1036",NA,NA
"367",1,"left",7,0,7,0,1,6,16,0,2,0.670691118,1,1,0.987727985,3,0.458201806,0.09,0.941176471,0.09,"metacognition_realexp","ah",85.36801247,1,"2013_Dec_04_1036",NA,NA
"368",2,"down",7,0,7,0,1,7,17,9,2,0.270674639,2,1,0.74070917,3,0.398819115,0.09,0.944444444,0.09,"metacognition_realexp","ah",85.36801247,1,"2013_Dec_04_1036",NA,NA
"369",2,"down",7,0,7,0,1,8,18,7,2,1.400042659,2,1,0.634781758,3,0.811042927,0.09,0.947368421,0.09,"metacognition_realexp","ah",85.36801247,1,"2013_Dec_04_1036",NA,NA
"370",1,"left",7,0,7,0,1,9,19,4,2,0.658886883,1,1,0.446621259,2,0.858120878,0.09,0.95,0.09,"metacognition_realexp","ah",85.36801247,1,"2013_Dec_04_1036",NA,NA
"371",1,"left",7,0,7,0,2,0,20,8,2,0.423583752,1,1,0.516979271,1,0.317124264,0.09,0.952380952,0.09,"metacognition_realexp","ah",85.36801247,1,"2013_Dec_04_1036",NA,NA
"372",1,"left",7,0,7,0,2,1,21,0,2,0.646987937,1,1,0.399683064,1,0.669869903,0.09,0.954545455,0.09,"metacognition_realexp","ah",85.36801247,1,"2013_Dec_04_1036",NA,NA
"373",1,"left",7,0,7,0,2,2,22,6,2,0.317741426,1,1,0.340718872,2,0.811087587,0.09,0.956521739,0.09,"metacognition_realexp","ah",85.36801247,1,"2013_Dec_04_1036",NA,NA
"374",2,"down",7,0,7,0,2,3,23,1,2,0.470708289,2,1,0.517191408,2,0.434742334,0.09,0.958333333,0.09,"metacognition_realexp","ah",85.36801247,1,"2013_Dec_04_1036",NA,NA
"375",1,"left",7,0,7,0,2,4,24,2,1,0.282438063,1,1,0.293672876,1,0.764096262,0.09,0.96,0.09,"metacognition_realexp","ah",85.36801247,1,"2013_Dec_04_1036",NA,NA
"376",2,"down",7,0,7,0,2,5,25,3,2,0.294246148,2,1,0.752432554,3,0.340383919,0.09,0.961538462,0.09,"metacognition_realexp","ah",85.36801247,1,"2013_Dec_04_1036",NA,NA
"377",2,"down",7,0,7,0,2,6,26,9,2,0.317733341,2,1,0.528962148,1,0.293437639,0.09,0.962962963,0.09,"metacognition_realexp","ah",85.36801247,1,"2013_Dec_04_1036",NA,NA
"378",1,"left",7,0,7,0,2,7,27,4,1,0.353123329,1,1,0.305331964,2,0.552269158,0.09,0.964285714,0.09,"metacognition_realexp","ah",85.36801247,1,"2013_Dec_04_1036",NA,NA
"379",2,"down",7,0,7,0,2,8,28,5,2,0.353065578,2,1,0.493689201,3,0.646327655,0.09,0.965517241,0.09,"metacognition_realexp","ah",85.36801247,1,"2013_Dec_04_1036",NA,NA
"380",2,"down",7,0,7,0,2,9,29,7,2,0.317767221,2,1,0.481898441,2,0.481708249,0.09,0.966666667,0.09,"metacognition_realexp","ah",85.36801247,1,"2013_Dec_04_1036",NA,NA
"381",1,"left",7,0,7,0,3,0,30,0,1,0.447189526,1,1,0.611284941,2,0.375875933,0.09,0.967741935,0.09,"metacognition_realexp","ah",85.36801247,1,"2013_Dec_04_1036",NA,NA
"382",2,"down",7,0,7,0,3,1,31,7,2,0.611895558,2,1,0.587718822,2,0.46992827,0.09,0.96875,0.09,"metacognition_realexp","ah",85.36801247,1,"2013_Dec_04_1036",NA,NA
"383",1,"left",7,0,7,0,3,2,32,6,1,0.694127875,1,1,0.587775803,2,0.670155961,0.09,0.96969697,0.09,"metacognition_realexp","ah",85.36801247,1,"2013_Dec_04_1036",NA,NA
"384",2,"down",7,0,7,0,3,3,33,9,1,0.753114012,2,1,0.411181605,1,1.293430709,0.09,0.970588235,0.09,"metacognition_realexp","ah",85.36801247,1,"2013_Dec_04_1036",NA,NA
"385",1,"left",7,0,7,0,3,4,34,8,2,0.353037088,1,1,0.905425597,1,1.246329657,0.09,0.971428571,0.09,"metacognition_realexp","ah",85.36801247,1,"2013_Dec_04_1036",NA,NA
"386",2,"down",7,0,7,0,3,5,35,1,2,0.411939679,2,1,0.799426574,2,0.458198726,0.09,0.972222222,0.09,"metacognition_realexp","ah",85.36801247,1,"2013_Dec_04_1036",NA,NA
"387",2,"down",7,0,7,0,3,6,36,5,2,0.305960291,2,1,0.893667948,3,0.316927141,0.09,0.972972973,0.09,"metacognition_realexp","ah",85.36801247,1,"2013_Dec_04_1036",NA,NA
"388",1,"left",7,0,7,0,3,7,37,4,2,0.57652713,1,1,0.481904216,3,0.669942284,0.09,0.973684211,0.09,"metacognition_realexp","ah",85.36801247,1,"2013_Dec_04_1036",NA,NA
"389",2,"down",7,0,7,0,3,8,38,3,2,0.82362256,2,1,0.670184837,2,0.434525576,0.09,0.974358974,0.09,"metacognition_realexp","ah",85.36801247,1,"2013_Dec_04_1036",NA,NA
"390",1,"left",7,0,7,0,3,9,39,2,2,0.600084778,1,1,0.387716358,2,0.481758685,0.09,0.975,0.09,"metacognition_realexp","ah",85.36801247,1,"2013_Dec_04_1036",NA,NA
"391",1,"left",7,0,7,0,4,0,40,4,2,0.281487873,1,1,0.494620526,1,0.422877269,0.09,0.975609756,0.09,"metacognition_realexp","ah",85.36801247,1,"2013_Dec_04_1036",NA,NA
"392",2,"down",7,0,7,0,4,1,41,5,2,0.341274049,2,1,0.470086892,3,0.399280735,0.09,0.976190476,0.09,"metacognition_realexp","ah",85.36801247,1,"2013_Dec_04_1036",NA,NA
"393",1,"left",7,0,7,0,4,2,42,8,2,0.353010523,1,1,0.505437994,3,0.387637047,0.09,0.976744186,0.09,"metacognition_realexp","ah",85.36801247,1,"2013_Dec_04_1036",NA,NA
"394",1,"left",7,0,7,0,4,3,43,2,1,0.411855363,1,1,0.481890356,3,0.458157916,0.09,0.977272727,0.09,"metacognition_realexp","ah",85.36801247,1,"2013_Dec_04_1036",NA,NA
"395",2,"down",7,0,7,0,4,4,44,1,1,0.317793786,2,1,0.623018334,3,0.281717335,0.09,0.977777778,0.09,"metacognition_realexp","ah",85.36801247,1,"2013_Dec_04_1036",NA,NA
"396",1,"left",7,0,7,0,4,5,45,6,1,0.188300256,1,1,0.517303445,2,0.269747164,0.09,0.97826087,0.09,"metacognition_realexp","ah",85.36801247,1,"2013_Dec_04_1036",NA,NA
"397",2,"down",7,0,7,0,4,6,46,7,2,0.670669942,2,1,0.634783683,3,0.622823137,0.09,0.978723404,0.09,"metacognition_realexp","ah",85.36801247,1,"2013_Dec_04_1036",NA,NA
"398",1,"left",7,0,7,0,4,7,47,0,1,0.294214193,1,1,0.363444911,2,0.258962421,0.09,0.979166667,0.09,"metacognition_realexp","ah",85.36801247,1,"2013_Dec_04_1036",NA,NA
"399",2,"down",7,0,7,0,4,8,48,3,2,0.364804362,2,1,0.740094318,3,0.270502157,0.09,0.979591837,0.09,"metacognition_realexp","ah",85.36801247,1,"2013_Dec_04_1036",NA,NA
"400",2,"down",7,0,7,0,4,9,49,9,2,0.317856927,2,1,0.493545979,3,0.328806452,0.09,0.98,0.09,"metacognition_realexp","ah",85.36801247,1,"2013_Dec_04_1036",NA,NA
"401",2,"down",8,0,8,0,0,0,0,9,2,0.31772718,2,1,0.422886124,2,0.351630282,0.09,1,0.09,"metacognition_realexp","ah",85.36801247,1,"2013_Dec_04_1036",NA,NA
"402",2,"down",8,0,8,0,0,1,1,3,2,0.270691965,2,1,0.340741203,3,0.399325395,0.09,1,0.09,"metacognition_realexp","ah",85.36801247,1,"2013_Dec_04_1036",NA,NA
"403",2,"down",8,0,8,0,0,2,2,7,2,0.470554672,2,1,0.411459194,2,0.587523625,0.09,1,0.09,"metacognition_realexp","ah",85.36801247,1,"2013_Dec_04_1036",NA,NA
"404",1,"left",8,0,8,0,0,3,3,8,1,0.117692376,1,1,0.364240716,2,0.305204143,0.09,1,0.09,"metacognition_realexp","ah",85.36801247,1,"2013_Dec_04_1036",NA,NA
"405",1,"left",8,0,8,0,0,4,4,4,2,0.258925845,1,1,0.24657452,3,0.611149419,0.09,1,0.09,"metacognition_realexp","ah",85.36801247,1,"2013_Dec_04_1036",NA,NA
"406",1,"left",8,0,8,0,0,5,5,2,2,0.44716835,1,1,1.658249701,1,0.516971956,0.09,1,0.09,"metacognition_realexp","ah",85.36801247,1,"2013_Dec_04_1036",NA,NA
"407",1,"left",8,0,8,0,0,6,6,0,1,0.56472944,1,1,0.340723493,2,0.599333249,0.09,1,0.09,"metacognition_realexp","ah",85.36801247,1,"2013_Dec_04_1036",NA,NA
"408",1,"left",8,0,8,0,0,7,7,6,1,0.317828052,1,1,0.364172185,3,0.28169231,0.09,1,0.09,"metacognition_realexp","ah",85.36801247,1,"2013_Dec_04_1036",NA,NA
"409",2,"down",8,0,8,0,0,8,8,5,1,0.341333725,2,1,0.399506347,3,0.269915411,0.09,1,0.09,"metacognition_realexp","ah",85.36801247,1,"2013_Dec_04_1036",NA,NA
"410",2,"down",8,0,8,0,0,9,9,1,1,0.329539885,2,1,0.563667598,2,0.30580398,0.09,1,0.09,"metacognition_realexp","ah",85.36801247,1,"2013_Dec_04_1036",NA,NA
"411",2,"down",8,0,8,0,1,0,10,9,1,0.647108444,2,1,0.340747363,3,0.34052406,0.09,1,0.09,"metacognition_realexp","ah",85.36801247,1,"2013_Dec_04_1036",NA,NA
"412",2,"down",8,0,8,0,1,1,11,7,1,0.564779876,2,1,0.305458246,2,0.35231636,0.09,1,0.09,"metacognition_realexp","ah",85.36801247,1,"2013_Dec_04_1036",NA,NA
"413",1,"left",8,0,8,0,1,2,12,0,1,0.329509085,1,1,0.434843205,2,0.446417592,0.09,1,0.09,"metacognition_realexp","ah",85.36801247,1,"2013_Dec_04_1036",NA,NA
"414",1,"left",8,0,8,0,1,3,13,4,1,0.364868658,1,1,0.575884557,3,0.340662277,0.09,1,0.09,"metacognition_realexp","ah",85.36801247,1,"2013_Dec_04_1036",NA,NA
"415",2,"down",8,0,8,0,1,4,14,5,2,0.470672868,2,1,0.37601569,3,0.387647827,0.09,1,0.09,"metacognition_realexp","ah",85.36801247,1,"2013_Dec_04_1036",NA,NA
"416",1,"left",8,0,8,0,1,5,15,6,2,0.541198357,1,1,0.352490382,3,0.505242797,0.09,1,0.09,"metacognition_realexp","ah",85.36801247,1,"2013_Dec_04_1036",NA,NA
"417",1,"left",8,0,8,0,1,6,16,2,2,0.694178695,1,1,0.293667486,3,0.305130992,0.09,1,0.09,"metacognition_realexp","ah",85.36801247,1,"2013_Dec_04_1036",NA,NA
"418",2,"down",8,0,8,0,1,7,17,3,2,1.623578516,2,1,0.481854166,3,0.316982967,0.09,1,0.09,"metacognition_realexp","ah",85.36801247,1,"2013_Dec_04_1036",NA,NA
"419",1,"left",8,0,8,0,1,8,18,8,2,0.188316041,1,1,0.164293692,3,0.270166434,0.09,1,0.09,"metacognition_realexp","ah",85.36801247,1,"2013_Dec_04_1036",NA,NA
"420",2,"down",8,0,8,0,1,9,19,1,2,0.74114538,2,1,0.787761712,1,0.411066489,0.09,1,0.09,"metacognition_realexp","ah",85.36801247,1,"2013_Dec_04_1036",NA,NA
"421",1,"left",8,0,8,0,2,0,20,0,2,0.717707853,1,1,0.352564687,2,0.246315797,0.09,1,0.09,"metacognition_realexp","ah",85.36801247,1,"2013_Dec_04_1036",NA,NA
"422",1,"left",8,0,8,0,2,1,21,6,2,0.941232545,1,1,0.328946978,2,0.293445724,0.09,1,0.09,"metacognition_realexp","ah",85.36801247,1,"2013_Dec_04_1036",NA,NA
"423",2,"down",8,0,8,0,2,2,22,3,2,0.411924279,2,1,0.575036008,1,0.40021206,0.09,1,0.09,"metacognition_realexp","ah",85.36801247,1,"2013_Dec_04_1036",NA,NA
"424",1,"left",8,0,8,0,2,3,23,4,2,0.353023613,1,1,0.211360478,2,0.258123111,0.09,1,0.09,"metacognition_realexp","ah",85.36801247,1,"2013_Dec_04_1036",NA,NA
"425",2,"down",8,0,8,0,2,4,24,9,1,0.44715218,2,1,0.458352728,2,0.552132097,0.09,1,0.09,"metacognition_realexp","ah",85.36801247,1,"2013_Dec_04_1036",NA,NA
"426",2,"down",8,0,8,0,2,5,25,1,2,0.353022843,2,1,0.43484898,2,0.564051062,0.09,1,0.09,"metacognition_realexp","ah",85.36801247,1,"2013_Dec_04_1036",NA,NA
"427",1,"left",8,0,8,0,2,6,26,8,2,0.411898099,1,1,0.328850342,2,0.399508657,0.09,1,0.09,"metacognition_realexp","ah",85.36801247,1,"2013_Dec_04_1036",NA,NA
"428",2,"down",8,0,8,0,2,7,27,7,1,0.470700974,2,1,0.434853215,1,0.387556966,0.09,1,0.09,"metacognition_realexp","ah",85.36801247,1,"2013_Dec_04_1036",NA,NA
"429",1,"left",8,0,8,0,2,8,28,2,2,0.341317939,1,1,0.328915408,2,0.305233788,0.09,1,0.09,"metacognition_realexp","ah",85.36801247,1,"2013_Dec_04_1036",NA,NA
"430",2,"down",8,0,8,0,2,9,29,5,2,0.364815912,2,1,0.564287455,2,0.422836843,0.09,1,0.09,"metacognition_realexp","ah",85.36801247,1,"2013_Dec_04_1036",NA,NA
"431",1,"left",8,0,8,0,3,0,30,0,2,0.494198176,1,1,1.787611945,1,0.375850138,0.09,1,0.09,"metacognition_realexp","ah",85.36801247,1,"2013_Dec_04_1036",NA,NA
"432",2,"down",8,0,8,0,3,1,31,9,2,0.470661703,2,1,0.717223903,2,0.470034146,0.09,1,0.09,"metacognition_realexp","ah",85.36801247,1,"2013_Dec_04_1036",NA,NA
"433",1,"left",8,0,8,0,3,2,32,4,2,0.388359315,2,0,0.964230012,1,0.446374471,0.09,0.96969697,0.09,"metacognition_realexp","ah",85.36801247,1,"2013_Dec_04_1036",NA,NA
"434",2,"down",8,0,8,0,3,3,33,3,2,0.282471174,2,1,0.658444513,2,0.363958507,0.09,0.970588235,0.09,"metacognition_realexp","ah",85.36801247,1,"2013_Dec_04_1036",NA,NA
"435",2,"down",8,0,8,0,3,4,34,5,2,0.341349895,1,0,0.411108455,1,0.37603725,0.09,0.942857143,0.09,"metacognition_realexp","ah",85.36801247,1,"2013_Dec_04_1036",NA,NA
"436",2,"down",8,0,8,0,3,5,35,1,2,0.458929079,2,1,0.611299571,1,0.258186252,0.09,0.944444444,0.09,"metacognition_realexp","ah",85.36801247,1,"2013_Dec_04_1036",NA,NA
"437",1,"left",8,0,8,0,3,6,36,6,2,0.317745276,1,1,0.458404704,3,0.528736535,0.09,0.945945946,0.09,"metacognition_realexp","ah",85.36801247,1,"2013_Dec_04_1036",NA,NA
"438",1,"left",8,0,8,0,3,7,37,2,1,0.247146251,1,1,0.352472286,2,0.340583736,0.09,0.947368421,0.09,"metacognition_realexp","ah",85.36801247,1,"2013_Dec_04_1036",NA,NA
"439",2,"down",8,0,8,0,3,8,38,7,2,0.329332753,2,1,0.846657373,3,0.222247248,0.09,0.948717949,0.09,"metacognition_realexp","ah",85.36801247,1,"2013_Dec_04_1036",NA,NA
"440",1,"left",8,0,8,0,3,9,39,8,1,0.541296533,1,1,0.423040511,1,0.305254578,0.09,0.95,0.09,"metacognition_realexp","ah",85.36801247,1,"2013_Dec_04_1036",NA,NA
"441",2,"down",8,0,8,0,4,0,40,9,2,0.341281364,2,1,0.517211814,3,0.434673803,0.09,0.951219512,0.09,"metacognition_realexp","ah",85.36801247,1,"2013_Dec_04_1036",NA,NA
"442",2,"down",8,0,8,0,4,1,41,3,2,0.400112729,2,1,0.799539766,1,0.540483404,0.09,0.952380952,0.09,"metacognition_realexp","ah",85.36801247,1,"2013_Dec_04_1036",NA,NA
"443",1,"left",8,0,8,0,4,2,42,6,2,0.294204567,1,1,0.434807785,1,0.375853988,0.09,0.953488372,0.09,"metacognition_realexp","ah",85.36801247,1,"2013_Dec_04_1036",NA,NA
"444",2,"down",8,0,8,0,4,3,43,5,2,0.835342094,2,1,0.658345567,2,0.46992134,0.09,0.954545455,0.09,"metacognition_realexp","ah",85.36801247,1,"2013_Dec_04_1036",NA,NA
"445",1,"left",8,0,8,0,4,4,44,2,1,0.011956696,1,1,0.470069566,2,0.622837767,0.09,0.955555556,0.09,"metacognition_realexp","ah",85.36801247,1,"2013_Dec_04_1036",NA,NA
"446",1,"left",8,0,8,0,4,5,45,4,2,0.247142786,1,1,0.270119463,3,0.834672571,0.09,0.956521739,0.09,"metacognition_realexp","ah",85.36801247,1,"2013_Dec_04_1036",NA,NA
"447",1,"left",8,0,8,0,4,6,46,8,2,0.482496738,1,1,0.270070952,2,0.269933121,0.09,0.957446809,0.09,"metacognition_realexp","ah",85.36801247,1,"2013_Dec_04_1036",NA,NA
"448",2,"down",8,0,8,0,4,7,47,7,1,0.294259623,2,1,0.870091435,3,0.634588871,0.09,0.958333333,0.09,"metacognition_realexp","ah",85.36801247,1,"2013_Dec_04_1036",NA,NA
"449",2,"down",8,0,8,0,4,8,48,1,1,0.411842658,2,1,0.317192794,3,0.646361535,0.09,0.959183673,0.09,"metacognition_realexp","ah",85.36801247,1,"2013_Dec_04_1036",NA,NA
"450",1,"left",8,0,8,0,4,9,49,0,2,0.294116786,1,1,0.352372955,3,0.328816462,0.09,0.96,0.09,"metacognition_realexp","ah",85.36801247,1,"2013_Dec_04_1036",NA,NA
"451",1,"left",9,0,9,0,0,0,0,8,2,0.329438244,1,1,0.211138716,2,0.222639182,0.09,1,0.09,"metacognition_realexp","ah",85.36801247,1,"2013_Dec_04_1036",NA,NA
"452",2,"down",9,0,9,0,0,1,1,5,2,0.270673869,2,1,0.411257836,3,0.364083249,0.09,1,0.09,"metacognition_realexp","ah",85.36801247,1,"2013_Dec_04_1036",NA,NA
"453",2,"down",9,0,9,0,0,2,2,9,2,0.317848072,2,1,0.493545594,1,0.282000698,0.09,1,0.09,"metacognition_realexp","ah",85.36801247,1,"2013_Dec_04_1036",NA,NA
"454",1,"left",9,0,9,0,0,3,3,6,2,0.294211113,1,1,0.423102496,2,0.316952552,0.09,1,0.09,"metacognition_realexp","ah",85.36801247,1,"2013_Dec_04_1036",NA,NA
"455",2,"down",9,0,9,0,0,4,4,3,2,0.247130851,2,1,0.646658374,3,0.45813366,0.09,1,0.09,"metacognition_realexp","ah",85.36801247,1,"2013_Dec_04_1036",NA,NA
"456",1,"left",9,0,9,0,0,5,5,0,2,0.270733545,1,1,0.505417589,1,0.281756221,0.09,1,0.09,"metacognition_realexp","ah",85.36801247,1,"2013_Dec_04_1036",NA,NA
"457",1,"left",9,0,9,0,0,6,6,4,2,0.411878848,1,1,0.293690972,2,0.328715976,0.09,1,0.09,"metacognition_realexp","ah",85.36801247,1,"2013_Dec_04_1036",NA,NA
"458",1,"left",9,0,9,0,0,7,7,2,2,1.176527592,1,1,0.517184093,1,0.375706146,0.09,1,0.09,"metacognition_realexp","ah",85.36801247,1,"2013_Dec_04_1036",NA,NA
"459",2,"down",9,0,9,0,0,8,8,1,2,0.38834353,2,1,0.564339046,3,0.587455479,0.09,1,0.09,"metacognition_realexp","ah",85.36801247,1,"2013_Dec_04_1036",NA,NA
"460",2,"down",9,0,9,0,0,9,9,7,1,0.305907931,2,1,0.470122697,3,0.234549678,0.09,1,0.09,"metacognition_realexp","ah",85.36801247,1,"2013_Dec_04_1036",NA,NA
"461",2,"down",9,0,9,0,1,0,10,1,1,0.741207751,2,1,0.317202805,2,0.681717258,0.09,1,0.09,"metacognition_realexp","ah",85.36801247,1,"2013_Dec_04_1036",NA,NA
"462",1,"left",9,0,9,0,1,1,11,6,2,0.353138344,1,1,0.305348134,3,0.39934041,0.09,1,0.09,"metacognition_realexp","ah",85.36801247,1,"2013_Dec_04_1036",NA,NA
"463",2,"down",9,0,9,0,1,2,12,5,1,0.352999742,2,1,0.493605655,2,0.387550036,0.09,1,0.09,"metacognition_realexp","ah",85.36801247,1,"2013_Dec_04_1036",NA,NA
"464",1,"left",9,0,9,0,1,3,13,0,1,1.282401103,1,1,0.364242641,2,0.622838537,0.09,1,0.09,"metacognition_realexp","ah",85.36801247,1,"2013_Dec_04_1036",NA,NA
"465",2,"down",9,0,9,0,1,4,14,3,2,0.423631107,2,1,0.587772338,2,0.893469286,0.09,1,0.09,"metacognition_realexp","ah",85.36801247,1,"2013_Dec_04_1036",NA,NA
"466",1,"left",9,0,9,0,1,5,15,2,2,0.27074779,1,1,0.328861507,1,0.305279989,0.09,1,0.09,"metacognition_realexp","ah",85.36801247,1,"2013_Dec_04_1036",NA,NA
"467",2,"down",9,0,9,0,1,6,16,9,2,0.448125856,2,1,0.458327703,2,0.422867259,0.09,1,0.09,"metacognition_realexp","ah",85.36801247,1,"2013_Dec_04_1036",NA,NA
"468",2,"down",9,0,9,0,1,7,17,7,2,0.317754131,2,1,0.340718872,2,0.434481686,0.09,1,0.09,"metacognition_realexp","ah",85.36801247,1,"2013_Dec_04_1036",NA,NA
"469",1,"left",9,0,9,0,1,8,18,8,2,0.682428746,1,1,0.399549468,2,0.481533457,0.09,1,0.09,"metacognition_realexp","ah",85.36801247,1,"2013_Dec_04_1036",NA,NA
"470",1,"left",9,0,9,0,1,9,19,4,2,0.305979157,2,0,0.340984911,1,0.340308458,0.09,0.95,0.09,"metacognition_realexp","ah",85.36801247,1,"2013_Dec_04_1036",NA,NA
"471",2,"down",9,0,9,0,2,0,20,3,2,0.63536119,1,0,0.434847825,1,0.352267464,0.09,0.904761905,0.09,"metacognition_realexp","ah",85.36801247,1,"2013_Dec_04_1036",NA,NA
"472",1,"left",9,0,9,0,2,1,21,2,2,0.329613806,2,0,0.481804115,1,0.434664563,0.09,0.863636364,0.09,"metacognition_realexp","ah",85.36801247,1,"2013_Dec_04_1036",NA,NA
"473",1,"left",9,0,9,0,2,2,22,4,2,0.282559725,1,1,0.411194696,2,0.364076704,0.09,0.869565217,0.09,"metacognition_realexp","ah",85.36801247,1,"2013_Dec_04_1036",NA,NA
"474",2,"down",9,0,9,0,2,3,23,1,2,0.270690425,2,1,0.705452009,3,0.316961407,0.09,0.875,0.09,"metacognition_realexp","ah",85.36801247,1,"2013_Dec_04_1036",NA,NA
"475",1,"left",9,0,9,0,2,4,24,8,2,0.388258444,1,1,0.528671469,2,0.387818384,0.09,0.88,0.09,"metacognition_realexp","ah",85.36801247,1,"2013_Dec_04_1036",NA,NA
"476",2,"down",9,0,9,0,2,5,25,9,2,0.282304852,2,1,0.364388172,3,0.258228988,0.09,0.884615385,0.09,"metacognition_realexp","ah",85.36801247,1,"2013_Dec_04_1036",NA,NA
"477",2,"down",9,0,9,0,2,6,26,7,2,0.305928336,2,1,0.999479474,1,0.446374856,0.09,0.888888889,0.09,"metacognition_realexp","ah",85.36801247,1,"2013_Dec_04_1036",NA,NA
"478",2,"down",9,0,9,0,2,7,27,5,2,0.282483879,2,1,0.493581399,3,0.293607426,0.09,0.892857143,0.09,"metacognition_realexp","ah",85.36801247,1,"2013_Dec_04_1036",NA,NA
"479",1,"left",9,0,9,0,2,8,28,6,2,0.270675794,1,1,1.093640382,2,1.046357993,0.09,0.896551724,0.09,"metacognition_realexp","ah",85.36801247,1,"2013_Dec_04_1036",NA,NA
"480",1,"left",9,0,9,0,2,9,29,0,2,0.258974741,2,0,0.599475701,1,0.234764125,0.09,0.866666667,0.09,"metacognition_realexp","ah",85.36801247,1,"2013_Dec_04_1036",NA,NA
"481",1,"left",9,0,9,0,3,0,30,8,2,0.847165193,1,1,0.317151599,1,0.469927885,0.09,0.870967742,0.09,"metacognition_realexp","ah",85.36801247,1,"2013_Dec_04_1036",NA,NA
"482",1,"left",9,0,9,0,3,1,31,0,2,0.31771717,2,0,0.68186279,1,0.305217233,0.09,0.84375,0.09,"metacognition_realexp","ah",85.36801247,1,"2013_Dec_04_1036",NA,NA
"483",1,"left",9,0,9,0,3,2,32,4,2,0.400118504,1,1,0.646550957,1,0.434672263,0.09,0.848484848,0.09,"metacognition_realexp","ah",85.36801247,1,"2013_Dec_04_1036",NA,NA
"484",1,"left",9,0,9,0,3,3,33,6,2,0.505981621,2,0,0.599485711,1,0.375851678,0.09,0.823529412,0.09,"metacognition_realexp","ah",85.36801247,1,"2013_Dec_04_1036",NA,NA
"485",1,"left",9,0,9,0,3,4,34,2,2,0.294189937,1,1,0.528989483,2,0.575799471,0.09,0.828571429,0.09,"metacognition_realexp","ah",85.36801247,1,"2013_Dec_04_1036",NA,NA
"486",2,"down",9,0,9,0,3,5,35,9,2,0.435379131,2,1,0.599489561,3,0.917029245,0.09,0.833333333,0.09,"metacognition_realexp","ah",85.36801247,1,"2013_Dec_04_1036",NA,NA
"487",2,"down",9,0,9,0,3,6,36,5,2,0.494194711,1,0,0.493602575,2,0.258180862,0.09,0.810810811,0.09,"metacognition_realexp","ah",85.36801247,1,"2013_Dec_04_1036",NA,NA
"488",2,"down",9,0,9,0,3,7,37,7,2,0.294211883,2,1,0.505431064,2,0.422833763,0.09,0.815789474,0.09,"metacognition_realexp","ah",85.36801247,1,"2013_Dec_04_1036",NA,NA
"489",2,"down",9,0,9,0,3,8,38,1,2,0.482412807,1,0,0.470186608,1,0.622858942,0.09,0.794871795,0.09,"metacognition_realexp","ah",85.36801247,1,"2013_Dec_04_1036",NA,NA
"490",2,"down",9,0,9,0,3,9,39,3,2,0.435409931,2,1,0.540680141,1,0.32864167,0.09,0.8,0.09,"metacognition_realexp","ah",85.36801247,1,"2013_Dec_04_1036",NA,NA
"491",1,"left",9,0,9,0,4,0,40,6,2,0.411943529,2,0,0.363529997,1,1.470454186,0.09,0.780487805,0.09,"metacognition_realexp","ah",85.36801247,1,"2013_Dec_04_1036",NA,NA
"492",1,"left",9,0,9,0,4,1,41,2,2,0.294284648,1,1,0.3641564,2,0.2935362,0.09,0.785714286,0.09,"metacognition_realexp","ah",85.36801247,1,"2013_Dec_04_1036",NA,NA
"493",1,"left",9,0,9,0,4,2,42,4,2,0.247172047,1,1,0.517150598,1,0.352271699,0.09,0.790697674,0.09,"metacognition_realexp","ah",85.36801247,1,"2013_Dec_04_1036",NA,NA
"494",2,"down",9,0,9,0,4,3,43,7,2,0.517763525,1,0,0.611266845,2,0.446436457,0.09,0.772727273,0.09,"metacognition_realexp","ah",85.36801247,1,"2013_Dec_04_1036",NA,NA
"495",2,"down",9,0,9,0,4,4,44,1,2,0.941249101,1,0,0.37604033,2,0.575799471,0.09,0.755555556,0.09,"metacognition_realexp","ah",85.36801247,1,"2013_Dec_04_1036",NA,NA
"496",2,"down",9,0,9,0,4,5,45,3,2,3.023366686,2,1,0.81131551,2,0.940446751,0.09,0.760869565,0.09,"metacognition_realexp","ah",85.36801247,1,"2013_Dec_04_1036",NA,NA
"497",2,"down",9,0,9,0,4,6,46,9,2,0.294206492,2,1,0.56430863,1,0.293419159,0.09,0.765957447,0.09,"metacognition_realexp","ah",85.36801247,1,"2013_Dec_04_1036",NA,NA
"498",1,"left",9,0,9,0,4,7,47,0,2,0.858912062,1,1,0.458356193,1,0.339604285,0.09,0.770833333,0.09,"metacognition_realexp","ah",85.36801247,1,"2013_Dec_04_1036",NA,NA
"499",2,"down",9,0,9,0,4,8,48,5,2,0.294254233,2,1,0.528919412,3,1.069863666,0.09,0.775510204,0.09,"metacognition_realexp","ah",85.36801247,1,"2013_Dec_04_1036",NA,NA
"500",1,"left",9,0,9,0,4,9,49,8,2,0.482407417,1,1,0.481892281,1,0.858135508,0.09,0.78,0.09,"metacognition_realexp","ah",85.36801247,1,"2013_Dec_04_1036",NA,NA
"501",2,"down",0,0,0,0,0,0,0,9,1,0.858892269,2,1,0.493411587,2,0.622629182,0.125,1,0.125,"metacognition_realexp","av",84.73327592,1,"2013_Dec_02_1544","None",NA
"502",1,"left",0,0,0,0,0,1,1,2,1,1.635455268,1,1,1.775732541,1,0.881796653,0.125,1,0.125,"metacognition_realexp","av",84.73327592,1,"2013_Dec_02_1544","None",NA
"503",2,"down",0,0,0,0,0,2,2,5,1,0.306057336,2,1,0.446522107,2,0.481728969,0.125,1,0.125,"metacognition_realexp","av",84.73327592,1,"2013_Dec_02_1544","None",NA
"504",1,"left",0,0,0,0,0,3,3,6,2,0.435416613,1,1,1.375923581,1,0.622887521,0.125,1,0.125,"metacognition_realexp","av",84.73327592,1,"2013_Dec_02_1544","None",NA
"505",2,"down",0,0,0,0,0,4,4,1,1,0.800086857,2,1,2.270004231,2,0.176049709,0.125,1,0.125,"metacognition_realexp","av",84.73327592,1,"2013_Dec_02_1544","None",NA
"506",1,"left",0,0,0,0,0,5,5,0,1,0.37654806,1,1,0.505466506,2,0.846389203,0.125,1,0.125,"metacognition_realexp","av",84.73327592,1,"2013_Dec_02_1544","None",NA
"507",2,"down",0,0,0,0,0,6,6,3,1,0.764790289,2,1,0.623046143,1,0.375828099,0.125,1,0.125,"metacognition_realexp","av",84.73327592,1,"2013_Dec_02_1544","None",NA
"508",2,"down",0,0,0,0,0,7,7,7,1,0.670664824,2,1,0.458357188,1,0.493358071,0.125,1,0.125,"metacognition_realexp","av",84.73327592,1,"2013_Dec_02_1544","None",NA
"509",1,"left",0,0,0,0,0,8,8,8,1,1.223778887,1,1,0.858075286,1,0.717019531,0.125,1,0.125,"metacognition_realexp","av",84.73327592,1,"2013_Dec_02_1544","None",NA
"510",1,"left",0,0,0,0,0,9,9,4,1,0.529477397,2,0,0.493657221,1,0.352269205,0.125,0.9,0.125,"metacognition_realexp","av",84.73327592,1,"2013_Dec_02_1544","None",NA
"511",1,"left",0,0,0,0,1,0,10,2,1,0.857914354,2,0,0.659151994,1,0.740641951,0.125,0.818181818,0.125,"metacognition_realexp","av",84.73327592,1,"2013_Dec_02_1544","None",NA
"512",2,"down",0,0,0,0,1,1,11,9,1,0.56478128,2,1,0.376033308,2,0.846395363,0.125,0.833333333,0.125,"metacognition_realexp","av",84.73327592,1,"2013_Dec_02_1544","None",NA
"513",2,"down",0,0,0,0,1,2,12,1,1,0.670657894,1,0,1.258322768,1,0.269784778,0.125,0.769230769,0.125,"metacognition_realexp","av",84.73327592,1,"2013_Dec_02_1544","None",NA
"514",1,"left",0,0,0,0,1,3,13,0,2,0.40009887,1,1,2.070040268,1,1.622785879,0.125,0.785714286,0.125,"metacognition_realexp","av",84.73327592,1,"2013_Dec_02_1544","None",NA
"515",1,"left",0,0,0,0,1,4,14,4,2,0.411905459,2,0,1.881696936,1,0.552272439,0.125,0.733333333,0.125,"metacognition_realexp","av",84.73327592,1,"2013_Dec_02_1544","None",NA
"516",1,"left",0,0,0,0,1,5,15,6,2,1.329444902,1,1,0.728925452,1,1.775747941,0.125,0.75,0.125,"metacognition_realexp","av",84.73327592,1,"2013_Dec_02_1544","None",NA
"517",2,"down",0,0,0,0,1,6,16,3,1,0.58836905,2,1,0.30537318,2,1.140465156,0.125,0.764705882,0.125,"metacognition_realexp","av",84.73327592,1,"2013_Dec_02_1544","None",NA
"518",2,"down",0,0,0,0,1,7,17,5,1,0.634747627,2,1,0.353089268,2,0.328791932,0.125,0.777777778,0.125,"metacognition_realexp","av",84.73327592,1,"2013_Dec_02_1544","None",NA
"519",2,"down",0,0,0,0,1,8,18,7,1,0.729246547,2,1,0.435623746,2,0.551549783,0.125,0.789473684,0.125,"metacognition_realexp","av",84.73327592,1,"2013_Dec_02_1544","None",NA
"520",1,"left",0,0,0,0,1,9,19,8,1,0.435508629,1,1,1.082382786,1,0.280977283,0.125,0.8,0.125,"metacognition_realexp","av",84.73327592,1,"2013_Dec_02_1544","None",NA
"521",1,"left",0,0,0,0,2,0,20,4,2,0.764761799,2,0,0.811278208,1,0.846412304,0.125,0.761904762,0.125,"metacognition_realexp","av",84.73327592,1,"2013_Dec_02_1544","None",NA
"522",1,"left",0,0,0,0,2,1,21,0,2,0.317742264,1,1,1.058338399,2,2.375701048,0.125,0.772727273,0.125,"metacognition_realexp","av",84.73327592,1,"2013_Dec_02_1544","None",NA
"523",2,"down",0,0,0,0,2,2,22,3,1,0.623632892,2,1,0.375958616,2,0.91698927,0.125,0.782608696,0.125,"metacognition_realexp","av",84.73327592,1,"2013_Dec_02_1544","None",NA
"524",2,"down",0,0,0,0,2,3,23,9,2,1.682342052,2,1,0.705415839,1,0.928740804,0.125,0.791666667,0.125,"metacognition_realexp","av",84.73327592,1,"2013_Dec_02_1544","None",NA
"525",2,"down",0,0,0,0,2,4,24,1,1,0.812114056,2,1,0.869794865,1,0.705224106,0.125,0.8,0.125,"metacognition_realexp","av",84.73327592,1,"2013_Dec_02_1544","None",NA
"526",2,"down",0,0,0,0,2,5,25,5,1,1.847054493,2,1,0.623194756,1,1.093282302,0.125,0.807692308,0.125,"metacognition_realexp","av",84.73327592,1,"2013_Dec_02_1544","None",NA
"527",1,"left",0,0,0,0,2,6,26,2,1,2.694049311,1,1,1.187751577,1,0.787515261,0.125,0.814814815,0.125,"metacognition_realexp","av",84.73327592,1,"2013_Dec_02_1544","None",NA
"528",1,"left",0,0,0,0,2,7,27,6,2,2.729353194,1,1,1.093650368,1,0.528725095,0.125,0.821428571,0.125,"metacognition_realexp","av",84.73327592,1,"2013_Dec_02_1544","None",NA
"529",2,"down",0,0,0,0,2,8,28,7,2,1.047082368,1,0,1.717122713,1,1.140471316,0.125,0.793103448,0.125,"metacognition_realexp","av",84.73327592,1,"2013_Dec_02_1544","None",NA
"530",1,"left",0,0,0,0,2,9,29,8,1,2.399597977,2,0,0.482058534,1,0.49360717,0.125,0.766666667,0.125,"metacognition_realexp","av",84.73327592,1,"2013_Dec_02_1544","None",NA
"531",2,"down",0,0,0,0,3,0,30,1,2,0.388352725,2,1,0.505388735,1,0.54052976,0.125,0.774193548,0.125,"metacognition_realexp","av",84.73327592,1,"2013_Dec_02_1544","None",NA
"532",1,"left",0,0,0,0,3,1,31,4,1,0.988270796,1,1,0.599744433,2,1.716651465,0.125,0.78125,0.125,"metacognition_realexp","av",84.73327592,1,"2013_Dec_02_1544","None",NA
"533",1,"left",0,0,0,0,3,2,32,6,2,0.25879055,1,1,2.258403619,2,0.481683923,0.125,0.787878788,0.125,"metacognition_realexp","av",84.73327592,1,"2013_Dec_02_1544","None",NA
"534",1,"left",0,0,0,0,3,3,33,0,2,0.388366971,1,1,2.246477293,1,0.728724864,0.125,0.794117647,0.125,"metacognition_realexp","av",84.73327592,1,"2013_Dec_02_1544","None",NA
"535",2,"down",0,0,0,0,3,4,34,5,1,1.11772594,2,1,0.423037904,1,0.752318024,0.125,0.8,0.125,"metacognition_realexp","av",84.73327592,1,"2013_Dec_02_1544","None",NA
"536",2,"down",0,0,0,0,3,5,35,3,1,2.282289384,2,1,0.423081795,1,0.611092481,0.125,0.805555556,0.125,"metacognition_realexp","av",84.73327592,1,"2013_Dec_02_1544","None",NA
"537",1,"left",0,0,0,0,3,6,36,2,2,0.447250153,2,0,2.599284351,1,1.658079367,0.125,0.783783784,0.125,"metacognition_realexp","av",84.73327592,1,"2013_Dec_02_1544","None",NA
"538",2,"down",0,0,0,0,3,7,37,7,2,0.340382149,2,1,1.28269518,2,1.999242308,0.125,0.789473684,0.125,"metacognition_realexp","av",84.73327592,1,"2013_Dec_02_1544","None",NA
"539",1,"left",0,0,0,0,3,8,38,8,2,0.623653298,2,0,0.834825167,1,0.258178776,0.125,0.769230769,0.125,"metacognition_realexp","av",84.73327592,1,"2013_Dec_02_1544","None",NA
"540",2,"down",0,0,0,0,3,9,39,9,2,0.623587077,2,1,0.858343635,1,0.387542288,0.125,0.775,0.125,"metacognition_realexp","av",84.73327592,1,"2013_Dec_02_1544","None",NA
"541",1,"left",0,0,0,0,4,0,40,2,2,0.811827226,2,0,0.623178585,1,0.469803797,0.125,0.756097561,0.125,"metacognition_realexp","av",84.73327592,1,"2013_Dec_02_1544","None",NA
"542",1,"left",0,0,0,0,4,1,41,8,2,1.564703894,1,1,0.999560708,1,0.587567467,0.125,0.761904762,0.125,"metacognition_realexp","av",84.73327592,1,"2013_Dec_02_1544","None",NA
"543",2,"down",0,0,0,0,4,2,42,3,2,0.259010004,2,1,0.434720522,1,0.328774607,0.125,0.76744186,0.125,"metacognition_realexp","av",84.73327592,1,"2013_Dec_02_1544","None",NA
"544",2,"down",0,0,0,0,4,3,43,1,2,1.576509329,2,1,0.423038289,1,0.364058085,0.125,0.772727273,0.125,"metacognition_realexp","av",84.73327592,1,"2013_Dec_02_1544","None",NA
"545",2,"down",0,0,0,0,4,4,44,5,2,0.611831307,2,1,1.105392662,1,0.587577093,0.125,0.777777778,0.125,"metacognition_realexp","av",84.73327592,1,"2013_Dec_02_1544","None",NA
"546",1,"left",0,0,0,0,4,5,45,4,2,0.682439844,2,0,1.787643468,1,0.56410675,0.125,0.760869565,0.125,"metacognition_realexp","av",84.73327592,1,"2013_Dec_02_1544","None",NA
"547",2,"down",0,0,0,0,4,6,46,7,2,0.835303344,2,1,0.493676086,1,1.340510356,0.125,0.765957447,0.125,"metacognition_realexp","av",84.73327592,1,"2013_Dec_02_1544","None",NA
"548",1,"left",0,0,0,0,4,7,47,0,2,1.20005213,2,0,0.576003431,1,0.999172237,0.125,0.75,0.125,"metacognition_realexp","av",84.73327592,1,"2013_Dec_02_1544","None",NA
"549",1,"left",0,0,0,0,4,8,48,6,2,1.035310043,1,1,0.376004047,1,0.869971968,0.125,0.755102041,0.125,"metacognition_realexp","av",84.73327592,1,"2013_Dec_02_1544","None",NA
"550",2,"down",0,0,0,0,4,9,49,9,1,1.305893708,2,1,0.964253745,1,0.458166225,0.125,0.76,0.125,"metacognition_realexp","av",84.73327592,1,"2013_Dec_02_1544","None",NA
"551",1,"left",1,0,1,0,0,0,0,2,1,1.235323288,1,1,1.446338844,1,0.540265646,0.125,1,0.125,"metacognition_realexp","av",84.73327592,1,"2013_Dec_02_1544","None",NA
"552",1,"left",1,0,1,0,0,1,1,0,2,0.17648053,2,0,1.270218294,1,0.422845786,0.125,0.5,0.125,"metacognition_realexp","av",84.73327592,1,"2013_Dec_02_1544","None",NA
"553",2,"down",1,0,1,0,0,2,2,1,1,0.988287351,2,1,0.199547387,1,0.305268844,0.125,0.666666667,0.125,"metacognition_realexp","av",84.73327592,1,"2013_Dec_02_1544","None",NA
"554",1,"left",1,0,1,0,0,3,3,4,2,0.294200695,1,1,0.987796084,1,0.352266895,0.125,0.75,0.125,"metacognition_realexp","av",84.73327592,1,"2013_Dec_02_1544","None",NA
"555",2,"down",1,0,1,0,0,4,4,3,2,0.541287452,1,0,1.04657339,1,0.399286892,0.125,0.6,0.125,"metacognition_realexp","av",84.73327592,1,"2013_Dec_02_1544","None",NA
"556",2,"down",1,0,1,0,0,5,5,7,1,2.894025209,2,1,0.516529264,1,0.376481069,0.125,0.666666667,0.125,"metacognition_realexp","av",84.73327592,1,"2013_Dec_02_1544","None",NA
"557",1,"left",1,0,1,0,0,6,6,6,2,0.282470336,1,1,0.50542685,1,0.422866577,0.125,0.714285714,0.125,"metacognition_realexp","av",84.73327592,1,"2013_Dec_02_1544","None",NA
"558",2,"down",1,0,1,0,0,7,7,9,2,0.635400982,2,1,2.258344328,1,0.399248007,0.125,0.75,0.125,"metacognition_realexp","av",84.73327592,1,"2013_Dec_02_1544","None",NA
"559",1,"left",1,0,1,0,0,8,8,8,2,0.588331319,1,1,0.752445076,1,0.305246898,0.125,0.777777778,0.125,"metacognition_realexp","av",84.73327592,1,"2013_Dec_02_1544","None",NA
"560",2,"down",1,0,1,0,0,9,9,5,2,0.658909055,1,0,0.552486888,1,0.246411072,0.125,0.7,0.125,"metacognition_realexp","av",84.73327592,1,"2013_Dec_02_1544","None",NA
"561",1,"left",1,0,1,0,1,0,10,4,2,0.40012505,2,0,0.540726498,1,0.364095431,0.125,0.636363636,0.125,"metacognition_realexp","av",84.73327592,1,"2013_Dec_02_1544","None",NA
"562",1,"left",1,0,1,0,1,1,11,0,2,0.458404158,2,0,0.588191947,1,0.352308091,0.125,0.583333333,0.125,"metacognition_realexp","av",84.73327592,1,"2013_Dec_02_1544","None",NA
"563",2,"down",1,0,1,0,1,2,12,1,2,0.447136192,2,1,0.599536145,1,0.199328704,0.125,0.615384615,0.125,"metacognition_realexp","av",84.73327592,1,"2013_Dec_02_1544","None",NA
"564",2,"down",1,0,1,0,1,3,13,3,2,1.517661567,1,0,0.457718463,1,0.317684898,0.125,0.571428571,0.125,"metacognition_realexp","av",84.73327592,1,"2013_Dec_02_1544","None",NA
"565",2,"down",1,0,1,0,1,4,14,9,2,0.317694523,2,1,0.364288319,1,0.340502656,0.125,0.6,0.125,"metacognition_realexp","av",84.73327592,1,"2013_Dec_02_1544","None",NA
"566",2,"down",1,0,1,0,1,5,15,7,2,1.388239534,2,1,3.411102337,1,0.434487979,0.125,0.625,0.125,"metacognition_realexp","av",84.73327592,1,"2013_Dec_02_1544","None",NA
"567",2,"down",1,0,1,0,1,6,16,5,2,0.035439405,1,0,0.823043602,1,0.269903745,0.125,0.588235294,0.125,"metacognition_realexp","av",84.73327592,1,"2013_Dec_02_1544","None",NA
"568",1,"left",1,0,1,0,1,7,17,2,2,0.341276133,2,0,0.517162599,1,0.211137989,0.125,0.555555556,0.125,"metacognition_realexp","av",84.73327592,1,"2013_Dec_02_1544","None",NA
"569",1,"left",1,0,1,0,1,8,18,6,2,1.035353549,1,1,0.376001352,1,0.305264609,0.125,0.578947368,0.125,"metacognition_realexp","av",84.73327592,1,"2013_Dec_02_1544","None",NA
"570",1,"left",1,0,1,0,1,9,19,8,2,0.482419669,2,0,0.552495743,1,1.046410918,0.125,0.55,0.125,"metacognition_realexp","av",84.73327592,1,"2013_Dec_02_1544","None",NA
"571",1,"left",1,0,1,0,2,0,20,6,2,0.611863648,1,1,2.293483429,1,0.517027462,0.125,0.571428571,0.125,"metacognition_realexp","av",84.73327592,1,"2013_Dec_02_1544","None",NA
"572",1,"left",1,0,1,0,2,1,21,0,2,0.388206808,2,0,0.423191907,1,0.481676993,0.125,0.545454545,0.125,"metacognition_realexp","av",84.73327592,1,"2013_Dec_02_1544","None",NA
"573",2,"down",1,0,1,0,2,2,22,5,2,0.717744882,1,0,0.623041523,1,0.716819713,0.125,0.52173913,0.125,"metacognition_realexp","av",84.73327592,1,"2013_Dec_02_1544","None",NA
"574",1,"left",1,0,1,0,2,3,23,2,2,0.800069917,2,0,0.376039853,1,0.504678399,0.125,0.5,0.125,"metacognition_realexp","av",84.73327592,1,"2013_Dec_02_1544","None",NA
"575",2,"down",1,0,1,0,2,4,24,7,2,0.541230856,2,1,0.387822957,1,0.351578505,0.125,0.52,0.125,"metacognition_realexp","av",84.73327592,1,"2013_Dec_02_1544","None",NA
"576",2,"down",1,0,1,0,2,5,25,1,2,0.494216634,2,1,0.481891441,1,0.246392206,0.125,0.538461538,0.125,"metacognition_realexp","av",84.73327592,1,"2013_Dec_02_1544","None",NA
"577",1,"left",1,0,1,0,2,6,26,4,2,0.811828766,2,0,0.434817544,1,0.293496904,0.125,0.518518519,0.125,"metacognition_realexp","av",84.73327592,1,"2013_Dec_02_1544","None",NA
"578",2,"down",1,0,1,0,2,7,27,9,2,0.411881204,2,1,0.364482362,1,0.234343833,0.125,0.535714286,0.125,"metacognition_realexp","av",84.73327592,1,"2013_Dec_02_1544","None",NA
"579",1,"left",1,0,1,0,2,8,28,8,2,0.40012351,1,1,0.293660917,1,0.375659082,0.125,0.551724138,0.125,"metacognition_realexp","av",84.73327592,1,"2013_Dec_02_1544","None",NA
"580",2,"down",1,0,1,0,2,9,29,3,2,0.035371259,2,1,0.646586942,2,1.199307913,0.125,0.566666667,0.125,"metacognition_realexp","av",84.73327592,1,"2013_Dec_02_1544","None",NA
"581",2,"down",1,0,1,0,3,0,30,9,2,1.000006545,2,1,0.51721188,1,0.340570032,0.125,0.580645161,0.125,"metacognition_realexp","av",84.73327592,1,"2013_Dec_02_1544","None",NA
"582",2,"down",1,0,1,0,3,1,31,3,2,0.447172382,1,0,0.470016705,1,0.352258425,0.125,0.5625,0.125,"metacognition_realexp","av",84.73327592,1,"2013_Dec_02_1544","None",NA
"583",1,"left",1,0,1,0,3,2,32,8,2,0.282475341,2,0,0.446548673,1,0.505246282,0.125,0.545454545,0.125,"metacognition_realexp","av",84.73327592,1,"2013_Dec_02_1544","None",NA
"584",1,"left",1,0,1,0,3,3,33,2,2,0.75302143,1,1,0.575992651,1,0.340526141,0.125,0.558823529,0.125,"metacognition_realexp","av",84.73327592,1,"2013_Dec_02_1544","None",NA
"585",2,"down",1,0,1,0,3,4,34,1,2,0.29422264,2,1,0.41130793,1,0.211107188,0.125,0.571428571,0.125,"metacognition_realexp","av",84.73327592,1,"2013_Dec_02_1544","None",NA
"586",2,"down",1,0,1,0,3,5,35,5,2,0.188407242,2,1,0.505351389,1,0.29352039,0.125,0.583333333,0.125,"metacognition_realexp","av",84.73327592,1,"2013_Dec_02_1544","None",NA
"587",1,"left",1,0,1,0,3,6,36,4,2,0.282470721,1,1,0.258352414,1,0.269949175,0.125,0.594594595,0.125,"metacognition_realexp","av",84.73327592,1,"2013_Dec_02_1544","None",NA
"588",1,"left",1,0,1,0,3,7,37,6,2,0.541227391,2,0,0.434844109,1,0.258223437,0.125,0.578947368,0.125,"metacognition_realexp","av",84.73327592,1,"2013_Dec_02_1544","None",NA
"589",1,"left",1,0,1,0,3,8,38,0,2,0.423635433,2,0,0.517199175,1,0.152277136,0.125,0.564102564,0.125,"metacognition_realexp","av",84.73327592,1,"2013_Dec_02_1544","None",NA
"590",2,"down",1,0,1,0,3,9,39,7,2,0.4824651,2,1,0.799659116,1,0.399181401,0.125,0.575,0.125,"metacognition_realexp","av",84.73327592,1,"2013_Dec_02_1544","None",NA
"591",1,"left",1,0,1,0,4,0,40,2,2,0.458890036,1,1,0.411331416,2,1.069907441,0.125,0.585365854,0.125,"metacognition_realexp","av",84.73327592,1,"2013_Dec_02_1544","None",NA
"592",1,"left",1,0,1,0,4,1,41,4,2,0.694249899,2,0,1.38767242,1,0.611096331,0.125,0.571428571,0.125,"metacognition_realexp","av",84.73327592,1,"2013_Dec_02_1544","None",NA
"593",1,"left",1,0,1,0,4,2,42,0,1,0.600067838,1,1,0.552480728,1,1.305188763,0.125,0.581395349,0.125,"metacognition_realexp","av",84.73327592,1,"2013_Dec_02_1544","None",NA
"594",2,"down",1,0,1,0,4,3,43,1,2,0.341291533,1,0,1.458300977,1,0.422836931,0.125,0.568181818,0.125,"metacognition_realexp","av",84.73327592,1,"2013_Dec_02_1544","None",NA
"595",2,"down",1,0,1,0,4,4,44,3,2,0.364831177,1,0,0.340699009,1,0.328805408,0.125,0.555555556,0.125,"metacognition_realexp","av",84.73327592,1,"2013_Dec_02_1544","None",NA
"596",1,"left",1,0,1,0,4,5,45,6,2,0.29420724,2,0,0.399566406,1,0.493471648,0.125,0.543478261,0.125,"metacognition_realexp","av",84.73327592,1,"2013_Dec_02_1544","None",NA
"597",1,"left",1,0,1,0,4,6,46,8,2,0.364793061,2,0,0.705413144,1,0.56316695,0.125,0.531914894,0.125,"metacognition_realexp","av",84.73327592,1,"2013_Dec_02_1544","None",NA
"598",2,"down",1,0,1,0,4,7,47,9,2,0.341274593,2,1,0.340686304,1,0.28174537,0.125,0.541666667,0.125,"metacognition_realexp","av",84.73327592,1,"2013_Dec_02_1544","None",NA
"599",2,"down",1,0,1,0,4,8,48,7,2,0.30598226,2,1,0.364215167,2,0.305288864,0.125,0.551020408,0.125,"metacognition_realexp","av",84.73327592,1,"2013_Dec_02_1544","None",NA
"600",2,"down",1,0,1,0,4,9,49,5,2,0.317686438,2,1,0.564241117,1,0.270079692,0.125,0.56,0.125,"metacognition_realexp","av",84.73327592,1,"2013_Dec_02_1544","None",NA
"601",2,"down",2,0,2,0,0,0,0,5,2,1.894127621,1,0,0.740499884,1,0.587305278,0.125,0,0.125,"metacognition_realexp","av",84.73327592,1,"2013_Dec_02_1544","None",NA
"602",2,"down",2,0,2,0,0,1,1,9,2,0.705929822,2,1,0.752423901,1,0.516949306,0.125,0.5,0.125,"metacognition_realexp","av",84.73327592,1,"2013_Dec_02_1544","None",NA
"603",1,"left",2,0,2,0,0,2,2,6,2,1.329451447,1,1,0.823044372,1,0.481695858,0.125,0.666666667,0.125,"metacognition_realexp","av",84.73327592,1,"2013_Dec_02_1544","None",NA
"604",2,"down",2,0,2,0,0,3,3,1,2,1.223543263,1,0,0.481924167,1,0.516992427,0.125,0.5,0.125,"metacognition_realexp","av",84.73327592,1,"2013_Dec_02_1544","None",NA
"605",2,"down",2,0,2,0,0,4,4,7,1,2.646962708,1,0,0.493659916,1,0.375832335,0.125,0.4,0.125,"metacognition_realexp","av",84.73327592,1,"2013_Dec_02_1544","None",NA
"606",1,"left",2,0,2,0,0,5,5,4,1,0.823576065,2,0,0.940814588,1,1.787306587,0.125,0.333333333,0.125,"metacognition_realexp","av",84.73327592,1,"2013_Dec_02_1544","None",NA
"607",1,"left",2,0,2,0,0,6,6,8,1,1.317875861,2,0,1.022786572,1,0.411159318,0.125,0.285714286,0.125,"metacognition_realexp","av",84.73327592,1,"2013_Dec_02_1544","None",NA
"608",1,"left",2,0,2,0,0,7,7,2,2,6.552575824,2,0,1.328894729,1,0.258126415,0.125,0.25,0.125,"metacognition_realexp","av",84.73327592,1,"2013_Dec_02_1544","None",NA
"609",2,"down",2,0,2,0,0,8,8,3,1,1.235305192,2,1,0.564264602,1,0.199315229,0.125,0.333333333,0.125,"metacognition_realexp","av",84.73327592,1,"2013_Dec_02_1544","None",NA
"610",1,"left",2,0,2,0,0,9,9,0,2,0.282475726,2,0,0.517160289,1,0.399356193,0.125,0.3,0.125,"metacognition_realexp","av",84.73327592,1,"2013_Dec_02_1544","None",NA
"611",1,"left",2,0,2,0,1,0,10,6,2,0.270741517,1,1,0.352414353,1,0.305236118,0.125,0.363636364,0.125,"metacognition_realexp","av",84.73327592,1,"2013_Dec_02_1544","None",NA
