"","firstgabor","corrAns","blocks.thisRepN","blocks.thisTrialN","blocks.thisN","blocks.thisIndex","trials.thisRepN","trials.thisTrialN","trials.thisN","trials.thisIndex","key_resp_2.keys","key_resp_2.rt","resp.keys","resp.corr","resp.rt","resp_mrating.keys","resp_mrating.rt","lumi","mean","luminance","expName","participant","frameRate","session","date","X"
"1",1,"left",0,0,0,0,0,0,0,0,1,2.047048913,2,0,1.999249244,2,1.657822762,0.02875,0,0.02875,"metacognition_realexp","ack",85.01985251,1,"2013_Dec_12_1052",NA
"2",2,"down",0,0,0,0,0,1,1,7,2,0.811768157,2,1,0.76420642,3,0.740626523,0.02875,0.5,0.02875,"metacognition_realexp","ack",85.01985251,1,"2013_Dec_12_1052",NA
"3",2,"down",0,0,0,0,0,2,2,5,2,1.258837938,1,0,4.775741882,1,0.999290439,0.02875,0.333333333,0.02875,"metacognition_realexp","ack",85.01985251,1,"2013_Dec_12_1052",NA
"4",1,"left",0,0,0,0,0,3,3,6,1,0.988329787,2,0,1.222991073,1,0.446447615,0.02875,0.25,0.02875,"metacognition_realexp","ack",85.01985251,1,"2013_Dec_12_1052",NA
"5",1,"left",0,0,0,0,0,4,4,2,3,0.952905657,2,0,0.764294201,2,1.599315388,0.02875,0.2,0.02875,"metacognition_realexp","ack",85.01985251,1,"2013_Dec_12_1052",NA
"6",1,"left",0,0,0,0,0,5,5,4,3,0.317822715,2,0,0.411299917,2,0.246359604,0.02875,0.166666667,0.02875,"metacognition_realexp","ack",85.01985251,1,"2013_Dec_12_1052",NA
"7",2,"down",0,0,0,0,0,6,6,3,3,0.141312676,2,1,1.69354296,2,0.799386074,0.02875,0.285714286,0.02875,"metacognition_realexp","ack",85.01985251,1,"2013_Dec_12_1052",NA
"8",2,"down",0,0,0,0,0,7,7,9,2,1.035377931,2,1,3.563969412,1,1.611085316,0.02875,0.375,0.02875,"metacognition_realexp","ack",85.01985251,1,"2013_Dec_12_1052",NA
"9",1,"left",0,0,0,0,0,8,8,8,3,0.458901309,2,0,0.634838079,3,0.740477527,0.02875,0.333333333,0.02875,"metacognition_realexp","ack",85.01985251,1,"2013_Dec_12_1052",NA
"10",2,"down",0,0,0,0,0,9,9,1,3,0.823563111,2,1,0.740721619,3,1.034455463,0.02875,0.4,0.02875,"metacognition_realexp","ack",85.01985251,1,"2013_Dec_12_1052",NA
"11",1,"left",0,0,0,0,1,0,10,8,3,0.08255813,2,0,0.834725119,1,1.105182064,0.02875,0.363636364,0.02875,"metacognition_realexp","ack",85.01985251,1,"2013_Dec_12_1052",NA
"12",2,"down",0,0,0,0,1,1,11,1,2,0.717780057,1,0,3.82283199,1,1.116911567,0.02875,0.333333333,0.02875,"metacognition_realexp","ack",85.01985251,1,"2013_Dec_12_1052",NA
"13",1,"left",0,0,0,0,1,2,12,4,3,1.882362317,1,1,1.104763566,2,0.894004039,0.02875,0.384615385,0.02875,"metacognition_realexp","ack",85.01985251,1,"2013_Dec_12_1052",NA
"14",2,"down",0,0,0,0,1,3,13,5,3,2.741149357,2,1,0.740712764,1,3.034421968,0.02875,0.428571429,0.02875,"metacognition_realexp","ack",85.01985251,1,"2013_Dec_12_1052",NA
"15",2,"down",0,0,0,0,1,4,14,9,1,0.45897215,2,1,3.011098098,3,0.422888894,0.02875,0.466666667,0.02875,"metacognition_realexp","ack",85.01985251,1,"2013_Dec_12_1052",NA
"16",2,"down",0,0,0,0,1,5,15,3,1,2.388170088,2,1,2.152348403,2,0.705245128,0.02875,0.5,0.02875,"metacognition_realexp","ack",85.01985251,1,"2013_Dec_12_1052",NA
"17",1,"left",0,0,0,0,1,6,16,0,2,1.564727868,2,0,0.858312331,3,0.587617455,0.02875,0.470588235,0.02875,"metacognition_realexp","ack",85.01985251,1,"2013_Dec_12_1052",NA
"18",2,"down",0,0,0,0,1,7,17,7,3,0.847100273,2,1,1.352390984,3,0.751723851,0.02875,0.5,0.02875,"metacognition_realexp","ack",85.01985251,1,"2013_Dec_12_1052",NA
"19",1,"left",0,0,0,0,1,8,18,6,1,0.411879346,2,0,0.470113753,1,0.599396238,0.02875,0.473684211,0.02875,"metacognition_realexp","ack",85.01985251,1,"2013_Dec_12_1052",NA
"20",1,"left",0,0,0,0,1,9,19,2,2,3.164634621,2,0,0.63490815,3,2.046141846,0.02875,0.45,0.02875,"metacognition_realexp","ack",85.01985251,1,"2013_Dec_12_1052",NA
"21",1,"left",0,0,0,0,2,0,20,6,3,2.670536717,2,0,0.470113368,3,0.705083426,0.02875,0.428571429,0.02875,"metacognition_realexp","ack",85.01985251,1,"2013_Dec_12_1052",NA
"22",2,"down",0,0,0,0,2,1,21,5,3,1.858880981,2,1,0.799376449,2,2.011024562,0.02875,0.454545455,0.02875,"metacognition_realexp","ack",85.01985251,1,"2013_Dec_12_1052",NA
"23",2,"down",0,0,0,0,2,2,22,1,3,1.400002772,2,1,2.058128146,1,0.893539341,0.02875,0.47826087,0.02875,"metacognition_realexp","ack",85.01985251,1,"2013_Dec_12_1052",NA
"24",1,"left",0,0,0,0,2,3,23,4,3,5.164477924,2,0,1.140662405,3,1.011086933,0.02875,0.458333333,0.02875,"metacognition_realexp","ack",85.01985251,1,"2013_Dec_12_1052",NA
"25",1,"left",0,0,0,0,2,4,24,2,1,0.3883726,2,0,8.022504583,3,0.347527241,0.02875,0.44,0.02875,"metacognition_realexp","ack",85.01985251,1,"2013_Dec_12_1052",NA
"26",1,"left",0,0,0,0,2,5,25,0,1,0.458928644,2,0,2.634743754,1,0.481613794,0.02875,0.423076923,0.02875,"metacognition_realexp","ack",85.01985251,1,"2013_Dec_12_1052",NA
"27",1,"left",0,0,0,0,2,6,26,8,1,0.35307244,2,0,1.222984913,2,1.246365379,0.02875,0.407407407,0.02875,"metacognition_realexp","ack",85.01985251,1,"2013_Dec_12_1052",NA
"28",2,"down",0,0,0,0,2,7,27,9,3,0.364825043,2,1,1.481847491,3,0.681620955,0.02875,0.428571429,0.02875,"metacognition_realexp","ack",85.01985251,1,"2013_Dec_12_1052",NA
"29",2,"down",0,0,0,0,2,8,28,3,2,0.752999366,2,1,0.470119143,2,0.858146395,0.02875,0.448275862,0.02875,"metacognition_realexp","ack",85.01985251,1,"2013_Dec_12_1052",NA
"30",2,"down",0,0,0,0,2,9,29,7,3,0.447154481,2,1,1.587769531,1,1.222705016,0.02875,0.466666667,0.02875,"metacognition_realexp","ack",85.01985251,1,"2013_Dec_12_1052",NA
"31",1,"left",0,0,0,0,3,0,30,8,2,0.31781617,1,1,0.423043665,3,1.105160119,0.02875,0.483870968,0.02875,"metacognition_realexp","ack",85.01985251,1,"2013_Dec_12_1052",NA
"32",1,"left",0,0,0,0,3,1,31,6,3,0.847124143,2,0,1.587711011,2,0.905072107,0.02875,0.46875,0.02875,"metacognition_realexp","ack",85.01985251,1,"2013_Dec_12_1052",NA
"33",1,"left",0,0,0,0,3,2,32,4,2,0.447152171,1,1,3.881631196,1,0.575795166,0.02875,0.484848485,0.02875,"metacognition_realexp","ack",85.01985251,1,"2013_Dec_12_1052",NA
"34",1,"left",0,0,0,0,3,3,33,2,2,1.658162334,2,0,0.435480803,3,4.269690019,0.02875,0.470588235,0.02875,"metacognition_realexp","ack",85.01985251,1,"2013_Dec_12_1052",NA
"35",2,"down",0,0,0,0,3,4,34,7,1,0.682574608,2,1,1.634581667,1,1.211116424,0.02875,0.485714286,0.02875,"metacognition_realexp","ack",85.01985251,1,"2013_Dec_12_1052",NA
"36",2,"down",0,0,0,0,3,5,35,3,1,0.35305011,2,1,0.623060451,2,0.375777995,0.02875,0.5,0.02875,"metacognition_realexp","ack",85.01985251,1,"2013_Dec_12_1052",NA
"37",2,"down",0,0,0,0,3,6,36,9,3,0.541327768,2,1,0.952378587,2,1.516997115,0.02875,0.513513514,0.02875,"metacognition_realexp","ack",85.01985251,1,"2013_Dec_12_1052",NA
"38",2,"down",0,0,0,0,3,7,37,5,1,1.976486324,2,1,0.670105514,3,1.44637485,0.02875,0.526315789,0.02875,"metacognition_realexp","ack",85.01985251,1,"2013_Dec_12_1052",NA
"39",2,"down",0,0,0,0,3,8,38,1,1,0.341331002,2,1,1.128885932,1,1.116929662,0.02875,0.538461538,0.02875,"metacognition_realexp","ack",85.01985251,1,"2013_Dec_12_1052",NA
"40",1,"left",0,0,0,0,3,9,39,0,3,0.388324474,2,0,0.681727601,2,0.764167535,0.02875,0.525,0.02875,"metacognition_realexp","ack",85.01985251,1,"2013_Dec_12_1052",NA
"41",2,"down",0,0,0,0,4,0,40,3,3,0.847129533,2,1,0.670085879,3,0.705206242,0.02875,0.536585366,0.02875,"metacognition_realexp","ack",85.01985251,1,"2013_Dec_12_1052",NA
"42",1,"left",0,0,0,0,4,1,41,6,2,0.329499473,2,0,0.528920659,2,1.446332884,0.02875,0.523809524,0.02875,"metacognition_realexp","ack",85.01985251,1,"2013_Dec_12_1052",NA
"43",2,"down",0,0,0,0,4,2,42,9,2,1.69414395,2,1,1.317129325,1,0.458174423,0.02875,0.534883721,0.02875,"metacognition_realexp","ack",85.01985251,1,"2013_Dec_12_1052",NA
"44",1,"left",0,0,0,0,4,3,43,0,3,0.38837414,2,0,0.552584102,1,2.70492057,0.02875,0.522727273,0.02875,"metacognition_realexp","ack",85.01985251,1,"2013_Dec_12_1052",NA
"45",1,"left",0,0,0,0,4,4,44,8,3,7.423114505,2,0,1.106003661,3,1.398635626,0.02875,0.511111111,0.02875,"metacognition_realexp","ack",85.01985251,1,"2013_Dec_12_1052",NA
"46",2,"down",0,0,0,0,4,5,45,5,3,0.38834796,2,1,2.705295948,2,1.140431404,0.02875,0.52173913,0.02875,"metacognition_realexp","ack",85.01985251,1,"2013_Dec_12_1052",NA
"47",1,"left",0,0,0,0,4,6,46,2,1,0.552862844,1,1,3.399613919,3,0.975638932,0.02875,0.531914894,0.02875,"metacognition_realexp","ack",85.01985251,1,"2013_Dec_12_1052",NA
"48",2,"down",0,0,0,0,4,7,47,1,1,0.753088302,2,1,1.55235695,2,0.34051749,0.02875,0.541666667,0.02875,"metacognition_realexp","ack",85.01985251,1,"2013_Dec_12_1052",NA
"49",1,"left",0,0,0,0,4,8,48,4,2,0.611881887,2,0,0.623089326,3,1.23453847,0.02875,0.530612245,0.02875,"metacognition_realexp","ack",85.01985251,1,"2013_Dec_12_1052",NA
"50",2,"down",0,0,0,0,4,9,49,7,2,0.576547847,1,0,3.364040407,1,0.916965237,0.02875,0.52,0.02875,"metacognition_realexp","ack",85.01985251,1,"2013_Dec_12_1052",NA
"51",1,"left",1,0,1,0,0,0,0,4,1,0.329537973,2,0,0.952218426,1,3.869490125,0.02875,0,0.02875,"metacognition_realexp","ack",85.01985251,1,"2013_Dec_12_1052",NA
"52",2,"down",1,0,1,0,0,1,1,1,2,0.929522881,2,1,0.740601883,2,0.811087472,0.02875,0.5,0.02875,"metacognition_realexp","ack",85.01985251,1,"2013_Dec_12_1052",NA
"53",2,"down",1,0,1,0,0,2,2,3,3,0.553077676,2,1,0.72889009,3,0.952233056,0.02875,0.666666667,0.02875,"metacognition_realexp","ack",85.01985251,1,"2013_Dec_12_1052",NA
"54",1,"left",1,0,1,0,0,3,3,2,2,3.670462027,2,0,0.717157507,2,0.693419759,0.02875,0.5,0.02875,"metacognition_realexp","ack",85.01985251,1,"2013_Dec_12_1052",NA
"55",2,"down",1,0,1,0,0,4,4,9,3,0.411912071,2,1,0.575980738,3,0.810500727,0.02875,0.6,0.02875,"metacognition_realexp","ack",85.01985251,1,"2013_Dec_12_1052",NA
"56",1,"left",1,0,1,0,0,5,5,0,3,0.858879056,2,0,0.199539382,3,0.246468174,0.02875,0.5,0.02875,"metacognition_realexp","ack",85.01985251,1,"2013_Dec_12_1052",NA
"57",1,"left",1,0,1,0,0,6,6,6,2,0.329574549,2,0,0.775961718,2,0.516987875,0.02875,0.428571429,0.02875,"metacognition_realexp","ack",85.01985251,1,"2013_Dec_12_1052",NA
"58",2,"down",1,0,1,0,0,7,7,7,1,1.011827294,1,0,1.81153061,2,1.598837599,0.02875,0.375,0.02875,"metacognition_realexp","ack",85.01985251,1,"2013_Dec_12_1052",NA
"59",1,"left",1,0,1,0,0,8,8,8,2,2.62357366,2,0,1.046409423,1,0.646348131,0.02875,0.333333333,0.02875,"metacognition_realexp","ack",85.01985251,1,"2013_Dec_12_1052",NA
"60",2,"down",1,0,1,0,0,9,9,5,2,0.764782,2,1,1.575922217,3,0.857984694,0.02875,0.4,0.02875,"metacognition_realexp","ack",85.01985251,1,"2013_Dec_12_1052",NA
"61",1,"left",1,0,1,0,1,0,10,2,3,0.741194403,2,0,0.811306154,2,4.963678812,0.02875,0.363636364,0.02875,"metacognition_realexp","ack",85.01985251,1,"2013_Dec_12_1052",NA
"62",2,"down",1,0,1,0,1,1,11,3,1,0.470712818,2,1,2.540576242,3,0.764062814,0.02875,0.416666667,0.02875,"metacognition_realexp","ack",85.01985251,1,"2013_Dec_12_1052",NA
"63",2,"down",1,0,1,0,1,2,12,5,1,3.799855778,1,0,1.023000852,3,0.82288435,0.02875,0.384615385,0.02875,"metacognition_realexp","ack",85.01985251,1,"2013_Dec_12_1052",NA
"64",1,"left",1,0,1,0,1,3,13,6,1,0.564806794,1,1,1.093620422,2,1.563949007,0.02875,0.428571429,0.02875,"metacognition_realexp","ack",85.01985251,1,"2013_Dec_12_1052",NA
"65",2,"down",1,0,1,0,1,4,14,1,1,1.552943695,2,1,2.575860232,1,0.44635175,0.02875,0.466666667,0.02875,"metacognition_realexp","ack",85.01985251,1,"2013_Dec_12_1052",NA
"66",2,"down",1,0,1,0,1,5,15,7,2,1.282345454,1,0,0.552443961,1,0.611104951,0.02875,0.4375,0.02875,"metacognition_realexp","ack",85.01985251,1,"2013_Dec_12_1052",NA
"67",1,"left",1,0,1,0,1,6,16,8,3,2.612310781,1,1,0.823057987,3,1.046390558,0.02875,0.470588235,0.02875,"metacognition_realexp","ack",85.01985251,1,"2013_Dec_12_1052",NA
"68",2,"down",1,0,1,0,1,7,17,9,3,2.999899129,1,0,2.846452312,1,3.999040957,0.02875,0.444444444,0.02875,"metacognition_realexp","ack",85.01985251,1,"2013_Dec_12_1052",NA
"69",1,"left",1,0,1,0,1,8,18,4,2,3.035202754,1,1,3.258116827,3,0.622851779,0.02875,0.473684211,0.02875,"metacognition_realexp","ack",85.01985251,1,"2013_Dec_12_1052",NA
"70",1,"left",1,0,1,0,1,9,19,0,3,0.553109246,2,0,1.987468921,1,2.446346745,0.02875,0.45,0.02875,"metacognition_realexp","ack",85.01985251,1,"2013_Dec_12_1052",NA
"71",1,"left",1,0,1,0,2,0,20,4,1,0.341284031,2,0,2.199543617,2,0.387375057,0.02875,0.428571429,0.02875,"metacognition_realexp","ack",85.01985251,1,"2013_Dec_12_1052",NA
"72",2,"down",1,0,1,0,2,1,21,5,2,0.717710756,1,0,1.35247376,3,1.552076283,0.02875,0.409090909,0.02875,"metacognition_realexp","ack",85.01985251,1,"2013_Dec_12_1052",NA
"73",1,"left",1,0,1,0,2,2,22,8,3,1.153069129,1,1,1.152230977,3,0.364053497,0.02875,0.434782609,0.02875,"metacognition_realexp","ack",85.01985251,1,"2013_Dec_12_1052",NA
"74",1,"left",1,0,1,0,2,3,23,0,3,4.164544915,1,1,0.540691358,3,4.257881975,0.02875,0.458333333,0.02875,"metacognition_realexp","ack",85.01985251,1,"2013_Dec_12_1052",NA
"75",1,"left",1,0,1,0,2,4,24,2,2,3.858692329,2,0,2.846403417,3,0.905221873,0.02875,0.44,0.02875,"metacognition_realexp","ack",85.01985251,1,"2013_Dec_12_1052",NA
"76",2,"down",1,0,1,0,2,5,25,3,1,0.211905295,2,1,1.505286477,3,2.457997707,0.02875,0.461538462,0.02875,"metacognition_realexp","ack",85.01985251,1,"2013_Dec_12_1052",NA
"77",2,"down",1,0,1,0,2,6,26,7,1,0.35312788,2,1,3.505122081,1,0.764003524,0.02875,0.481481481,0.02875,"metacognition_realexp","ack",85.01985251,1,"2013_Dec_12_1052",NA
"78",2,"down",1,0,1,0,2,7,27,1,2,0.65891078,2,1,1.093611952,3,0.999301604,0.02875,0.5,0.02875,"metacognition_realexp","ack",85.01985251,1,"2013_Dec_12_1052",NA
"79",2,"down",1,0,1,0,2,8,28,9,2,1.423578819,1,0,0.470107593,3,5.093206544,0.02875,0.482758621,0.02875,"metacognition_realexp","ack",85.01985251,1,"2013_Dec_12_1052",NA
"80",1,"left",1,0,1,0,2,9,29,6,2,1.670573678,1,1,1.023020873,2,3.8108711,0.02875,0.5,0.02875,"metacognition_realexp","ack",85.01985251,1,"2013_Dec_12_1052",NA
"81",1,"left",1,0,1,0,3,0,30,2,2,3.011652887,2,0,0.587791861,1,2.681467339,0.02875,0.483870968,0.02875,"metacognition_realexp","ack",85.01985251,1,"2013_Dec_12_1052",NA
"82",1,"left",1,0,1,0,3,1,31,6,3,0.823630871,1,1,6.587281347,3,1.728695664,0.02875,0.5,0.02875,"metacognition_realexp","ack",85.01985251,1,"2013_Dec_12_1052",NA
"83",1,"left",1,0,1,0,3,2,32,0,1,0.364837748,2,0,1.881749777,1,0.458177503,0.02875,0.484848485,0.02875,"metacognition_realexp","ack",85.01985251,1,"2013_Dec_12_1052",NA
"84",2,"down",1,0,1,0,3,3,33,9,1,1.023676533,2,1,2.246373849,3,0.646353136,0.02875,0.5,0.02875,"metacognition_realexp","ack",85.01985251,1,"2013_Dec_12_1052",NA
"85",2,"down",1,0,1,0,3,4,34,5,2,2.870525783,2,1,1.340652241,2,0.399363667,0.02875,0.514285714,0.02875,"metacognition_realexp","ack",85.01985251,1,"2013_Dec_12_1052",NA
"86",2,"down",1,0,1,0,3,5,35,1,3,0.623617935,2,1,1.270081182,1,1.058060385,0.02875,0.527777778,0.02875,"metacognition_realexp","ack",85.01985251,1,"2013_Dec_12_1052",NA
"87",2,"down",1,0,1,0,3,6,36,3,1,0.470685868,2,1,2.975804868,3,0.834640804,0.02875,0.540540541,0.02875,"metacognition_realexp","ack",85.01985251,1,"2013_Dec_12_1052",NA
"88",2,"down",1,0,1,0,3,7,37,7,2,4.635098726,1,0,1.093608102,2,1.281998181,0.02875,0.526315789,0.02875,"metacognition_realexp","ack",85.01985251,1,"2013_Dec_12_1052",NA
"89",1,"left",1,0,1,0,3,8,38,8,3,4.576279885,2,0,1.352402535,2,3.516770733,0.02875,0.512820513,0.02875,"metacognition_realexp","ack",85.01985251,1,"2013_Dec_12_1052",NA
"90",1,"left",1,0,1,0,3,9,39,4,2,0.788331481,1,1,1.352417935,3,1.822758839,0.02875,0.525,0.02875,"metacognition_realexp","ack",85.01985251,1,"2013_Dec_12_1052",NA
"91",2,"down",1,0,1,0,4,0,40,3,2,2.011762613,1,0,0.787869478,3,3.245894135,0.02875,0.512195122,0.02875,"metacognition_realexp","ack",85.01985251,1,"2013_Dec_12_1052",NA
"92",2,"down",1,0,1,0,4,1,41,9,2,0.423640419,1,0,0.881851418,1,2.728575928,0.02875,0.5,0.02875,"metacognition_realexp","ack",85.01985251,1,"2013_Dec_12_1052",NA
"93",1,"left",1,0,1,0,4,2,42,8,2,0.447171036,1,1,2.387601054,3,0.622964585,0.02875,0.511627907,0.02875,"metacognition_realexp","ack",85.01985251,1,"2013_Dec_12_1052",NA
"94",1,"left",1,0,1,0,4,3,43,2,1,0.447172576,2,0,6.599075531,2,2.258047141,0.02875,0.5,0.02875,"metacognition_realexp","ack",85.01985251,1,"2013_Dec_12_1052",NA
"95",2,"down",1,0,1,0,4,4,44,5,1,0.341230131,2,1,0.8934916,3,0.351795385,0.02875,0.511111111,0.02875,"metacognition_realexp","ack",85.01985251,1,"2013_Dec_12_1052",NA
"96",2,"down",1,0,1,0,4,5,45,7,1,0.376572256,2,1,3.352287419,1,1.98740116,0.02875,0.52173913,0.02875,"metacognition_realexp","ack",85.01985251,1,"2013_Dec_12_1052",NA
"97",1,"left",1,0,1,0,4,6,46,4,3,0.376584191,1,1,1.211281205,3,0.587568174,0.02875,0.531914894,0.02875,"metacognition_realexp","ack",85.01985251,1,"2013_Dec_12_1052",NA
"98",1,"left",1,0,1,0,4,7,47,0,3,1.294478055,2,0,3.59895849,2,4.774799394,0.02875,0.520833333,0.02875,"metacognition_realexp","ack",85.01985251,1,"2013_Dec_12_1052",NA
"99",1,"left",1,0,1,0,4,8,48,6,1,0.635385939,1,1,2.164142972,3,0.740452117,0.02875,0.530612245,0.02875,"metacognition_realexp","ack",85.01985251,1,"2013_Dec_12_1052",NA
"100",2,"down",1,0,1,0,4,9,49,1,1,0.423634259,1,0,1.564258935,3,0.458009257,0.02875,0.52,0.02875,"metacognition_realexp","ack",85.01985251,1,"2013_Dec_12_1052",NA
"101",2,"down",2,0,2,0,0,0,0,9,1,0.388291364,2,1,0.987576721,2,1.046387093,0.02875,1,0.02875,"metacognition_realexp","ack",85.01985251,1,"2013_Dec_12_1052",NA
"102",2,"down",2,0,2,0,0,1,1,1,1,1.058903927,1,0,2.952265011,3,0.445857791,0.02875,0.5,0.02875,"metacognition_realexp","ack",85.01985251,1,"2013_Dec_12_1052",NA
"103",2,"down",2,0,2,0,0,2,2,7,3,0.506199704,2,1,1.434599916,2,1.481437078,0.02875,0.666666667,0.02875,"metacognition_realexp","ack",85.01985251,1,"2013_Dec_12_1052",NA
"104",1,"left",2,0,2,0,0,3,3,2,1,0.329535278,2,0,1.611215062,3,0.552273405,0.02875,0.5,0.02875,"metacognition_realexp","ack",85.01985251,1,"2013_Dec_12_1052",NA
"105",1,"left",2,0,2,0,0,4,4,4,2,0.376584191,2,0,0.623061606,2,2.563862766,0.02875,0.4,0.02875,"metacognition_realexp","ack",85.01985251,1,"2013_Dec_12_1052",NA
"106",1,"left",2,0,2,0,0,5,5,6,1,2.305857205,2,0,3.199351886,1,0.846370692,0.02875,0.333333333,0.02875,"metacognition_realexp","ack",85.01985251,1,"2013_Dec_12_1052",NA
"107",1,"left",2,0,2,0,0,6,6,0,3,0.435410733,2,0,0.83480289,3,3.116761416,0.02875,0.285714286,0.02875,"metacognition_realexp","ack",85.01985251,1,"2013_Dec_12_1052",NA
"108",2,"down",2,0,2,0,0,7,7,5,3,0.894222721,2,1,0.3524445,3,0.26991409,0.02875,0.375,0.02875,"metacognition_realexp","ack",85.01985251,1,"2013_Dec_12_1052",NA
"109",2,"down",2,0,2,0,0,8,8,3,2,0.600069994,2,1,1.434795113,2,1.305083734,0.02875,0.444444444,0.02875,"metacognition_realexp","ack",85.01985251,1,"2013_Dec_12_1052",NA
"110",1,"left",2,0,2,0,0,9,9,8,2,1.03472843,1,1,0.588429426,3,1.128532499,0.02875,0.5,0.02875,"metacognition_realexp","ack",85.01985251,1,"2013_Dec_12_1052",NA
"111",2,"down",2,0,2,0,1,0,10,9,1,0.45896445,2,1,2.599363513,3,2.893278309,0.02875,0.545454545,0.02875,"metacognition_realexp","ack",85.01985251,1,"2013_Dec_12_1052",NA
"112",2,"down",2,0,2,0,1,1,11,7,3,6.940834271,2,1,0.352325149,1,1.270024971,0.02875,0.583333333,0.02875,"metacognition_realexp","ack",85.01985251,1,"2013_Dec_12_1052",NA
"113",2,"down",2,0,2,0,1,2,12,5,2,0.588351271,2,1,1.199464307,2,0.575790161,0.02875,0.615384615,0.02875,"metacognition_realexp","ack",85.01985251,1,"2013_Dec_12_1052",NA
"114",1,"left",2,0,2,0,1,3,13,8,1,0.341299047,1,1,1.187738269,3,0.634614392,0.02875,0.642857143,0.02875,"metacognition_realexp","ack",85.01985251,1,"2013_Dec_12_1052",NA
"115",1,"left",2,0,2,0,1,4,14,0,1,0.376572256,2,0,1.151471366,1,2.541324688,0.02875,0.6,0.02875,"metacognition_realexp","ack",85.01985251,1,"2013_Dec_12_1052",NA
"116",1,"left",2,0,2,0,1,5,15,6,1,0.352803323,2,0,1.670166344,2,0.457955357,0.02875,0.5625,0.02875,"metacognition_realexp","ack",85.01985251,1,"2013_Dec_12_1052",NA
"117",2,"down",2,0,2,0,1,6,16,3,2,0.458709193,1,0,0.740705834,2,0.681492364,0.02875,0.529411765,0.02875,"metacognition_realexp","ack",85.01985251,1,"2013_Dec_12_1052",NA
"118",1,"left",2,0,2,0,1,7,17,4,2,1.17655162,1,1,1.328829183,1,1.210980903,0.02875,0.555555556,0.02875,"metacognition_realexp","ack",85.01985251,1,"2013_Dec_12_1052",NA
"119",1,"left",2,0,2,0,1,8,18,2,1,0.505989878,2,0,4.128653775,3,1.516915879,0.02875,0.526315789,0.02875,"metacognition_realexp","ack",85.01985251,1,"2013_Dec_12_1052",NA
"120",2,"down",2,0,2,0,1,9,19,1,1,0.447187976,2,1,4.751970253,3,1.364095847,0.02875,0.55,0.02875,"metacognition_realexp","ack",85.01985251,1,"2013_Dec_12_1052",NA
"121",2,"down",2,0,2,0,2,0,20,9,1,0.340812403,2,1,3.152711846,2,2.270078487,0.02875,0.571428571,0.02875,"metacognition_realexp","ack",85.01985251,1,"2013_Dec_12_1052",NA
"122",1,"left",2,0,2,0,2,1,21,4,1,0.364867008,1,1,1.504315884,2,0.494399746,0.02875,0.590909091,0.02875,"metacognition_realexp","ack",85.01985251,1,"2013_Dec_12_1052",NA
"123",1,"left",2,0,2,0,2,2,22,8,1,0.329563383,2,0,0.987712628,1,0.598732878,0.02875,0.565217391,0.02875,"metacognition_realexp","ack",85.01985251,1,"2013_Dec_12_1052",NA
"124",1,"left",2,0,2,0,2,3,23,2,1,0.329556453,2,0,0.35242833,3,2.858052454,0.02875,0.541666667,0.02875,"metacognition_realexp","ack",85.01985251,1,"2013_Dec_12_1052",NA
"125",2,"down",2,0,2,0,2,4,24,7,2,0.341303667,1,0,2.799341414,3,1.512260807,0.02875,0.52,0.02875,"metacognition_realexp","ack",85.01985251,1,"2013_Dec_12_1052",NA
"126",2,"down",2,0,2,0,2,5,25,3,3,0.470697803,2,1,2.022948492,3,1.152211342,0.02875,0.538461538,0.02875,"metacognition_realexp","ack",85.01985251,1,"2013_Dec_12_1052",NA
"127",1,"left",2,0,2,0,2,6,26,0,3,0.329537973,2,0,0.999587277,2,1.010927542,0.02875,0.518518519,0.02875,"metacognition_realexp","ack",85.01985251,1,"2013_Dec_12_1052",NA
"128",2,"down",2,0,2,0,2,7,27,5,1,0.364874323,2,1,5.822607918,1,4.152006905,0.02875,0.535714286,0.02875,"metacognition_realexp","ack",85.01985251,1,"2013_Dec_12_1052",NA
"129",1,"left",2,0,2,0,2,8,28,6,1,0.31777074,2,0,1.293570603,1,0.952236906,0.02875,0.517241379,0.02875,"metacognition_realexp","ack",85.01985251,1,"2013_Dec_12_1052",NA
"130",2,"down",2,0,2,0,2,9,29,1,1,2.141136344,2,1,1.917087668,2,0.552236059,0.02875,0.533333333,0.02875,"metacognition_realexp","ack",85.01985251,1,"2013_Dec_12_1052",NA
"131",1,"left",2,0,2,0,3,0,30,6,2,0.44703436,2,0,1.599494414,1,4.293269531,0.02875,0.516129032,0.02875,"metacognition_realexp","ack",85.01985251,1,"2013_Dec_12_1052",NA
"132",1,"left",2,0,2,0,3,1,31,2,2,0.470712818,2,0,1.105356855,2,2.058083486,0.02875,0.5,0.02875,"metacognition_realexp","ack",85.01985251,1,"2013_Dec_12_1052",NA
"133",2,"down",2,0,2,0,3,2,32,1,2,1.952196481,2,1,3.600068454,3,0.693463264,0.02875,0.515151515,0.02875,"metacognition_realexp","ack",85.01985251,1,"2013_Dec_12_1052",NA
"134",1,"left",2,0,2,0,3,3,33,8,1,0.364933999,2,0,1.528788988,2,0.975725943,0.02875,0.5,0.02875,"metacognition_realexp","ack",85.01985251,1,"2013_Dec_12_1052",NA
"135",2,"down",2,0,2,0,3,4,34,7,1,0.470711278,2,1,0.717081276,3,0.669954593,0.02875,0.514285714,0.02875,"metacognition_realexp","ack",85.01985251,1,"2013_Dec_12_1052",NA
"136",2,"down",2,0,2,0,3,5,35,9,1,0.317763425,2,1,0.693672321,3,0.599304222,0.02875,0.527777778,0.02875,"metacognition_realexp","ack",85.01985251,1,"2013_Dec_12_1052",NA
"137",1,"left",2,0,2,0,3,6,36,0,1,0.341263241,2,0,1.35242987,1,0.493412213,0.02875,0.513513514,0.02875,"metacognition_realexp","ack",85.01985251,1,"2013_Dec_12_1052",NA
"138",2,"down",2,0,2,0,3,7,37,3,1,0.317780365,2,1,1.046546099,1,0.58758242,0.02875,0.526315789,0.02875,"metacognition_realexp","ack",85.01985251,1,"2013_Dec_12_1052",NA
"139",1,"left",2,0,2,0,3,8,38,4,2,1.705915418,2,0,0.76423029,1,2.222720801,0.02875,0.512820513,0.02875,"metacognition_realexp","ack",85.01985251,1,"2013_Dec_12_1052",NA
"140",2,"down",2,0,2,0,3,9,39,5,2,0.423698555,1,0,2.092902777,2,0.611666286,0.02875,0.5,0.02875,"metacognition_realexp","ack",85.01985251,1,"2013_Dec_12_1052",NA
"141",1,"left",2,0,2,0,4,0,40,0,2,9.446477646,2,0,2.317034999,1,1.869814683,0.02875,0.487804878,0.02875,"metacognition_realexp","ack",85.01985251,1,"2013_Dec_12_1052",NA
"142",2,"down",2,0,2,0,4,1,41,1,3,0.49426461,2,1,0.846572048,3,0.540493081,0.02875,0.5,0.02875,"metacognition_realexp","ack",85.01985251,1,"2013_Dec_12_1052",NA
"143",2,"down",2,0,2,0,4,2,42,9,3,0.458925949,2,1,0.65821508,3,0.552266859,0.02875,0.511627907,0.02875,"metacognition_realexp","ack",85.01985251,1,"2013_Dec_12_1052",NA
"144",2,"down",2,0,2,0,4,3,43,5,3,0.38838569,2,1,0.63489044,2,2.446131143,0.02875,0.522727273,0.02875,"metacognition_realexp","ack",85.01985251,1,"2013_Dec_12_1052",NA
"145",1,"left",2,0,2,0,4,4,44,4,1,0.623883202,2,0,1.787402854,2,2.328599336,0.02875,0.511111111,0.02875,"metacognition_realexp","ack",85.01985251,1,"2013_Dec_12_1052",NA
"146",1,"left",2,0,2,0,4,5,45,8,3,7.117243055,2,0,1.493561209,3,1.046350903,0.02875,0.5,0.02875,"metacognition_realexp","ack",85.01985251,1,"2013_Dec_12_1052",NA
"147",1,"left",2,0,2,0,4,6,46,6,2,0.847132998,2,0,1.034811976,3,2.84619744,0.02875,0.489361702,0.02875,"metacognition_realexp","ack",85.01985251,1,"2013_Dec_12_1052",NA
"148",2,"down",2,0,2,0,4,7,47,7,1,0.38836259,2,1,1.422941639,1,1.540458046,0.02875,0.5,0.02875,"metacognition_realexp","ack",85.01985251,1,"2013_Dec_12_1052",NA
"149",1,"left",2,0,2,0,4,8,48,2,2,0.023639572,2,0,1.152416934,2,0.740522572,0.02875,0.489795918,0.02875,"metacognition_realexp","ack",85.01985251,1,"2013_Dec_12_1052",NA
"150",2,"down",2,0,2,0,4,9,49,3,2,1.929494776,2,1,1.328844198,2,0.64626805,0.02875,0.5,0.02875,"metacognition_realexp","ack",85.01985251,1,"2013_Dec_12_1052",NA
"151",1,"left",3,0,3,0,0,0,0,2,2,0.388356045,1,1,1.493347532,3,2.057826304,0.02875,1,0.02875,"metacognition_realexp","ack",85.01985251,1,"2013_Dec_12_1052",NA
"152",1,"left",3,0,3,0,0,1,1,8,1,0.517754801,2,0,4.528649232,2,1.316968779,0.02875,0.5,0.02875,"metacognition_realexp","ack",85.01985251,1,"2013_Dec_12_1052",NA
"153",2,"down",3,0,3,0,0,2,2,7,1,0.494215329,2,1,3.587503494,3,2.163921595,0.02875,0.666666667,0.02875,"metacognition_realexp","ack",85.01985251,1,"2013_Dec_12_1052",NA
"154",2,"down",3,0,3,0,0,3,3,1,2,0.317785755,2,1,0.646563347,3,2.104146791,0.02875,0.75,0.02875,"metacognition_realexp","ack",85.01985251,1,"2013_Dec_12_1052",NA
"155",2,"down",3,0,3,0,0,4,4,3,2,2.682353231,1,0,0.422945874,2,1.658108049,0.02875,0.6,0.02875,"metacognition_realexp","ack",85.01985251,1,"2013_Dec_12_1052",NA
"156",2,"down",3,0,3,0,0,5,5,9,2,0.258876823,1,0,0.52897225,3,0.658083024,0.02875,0.5,0.02875,"metacognition_realexp","ack",85.01985251,1,"2013_Dec_12_1052",NA
"157",1,"left",3,0,3,0,0,6,6,0,3,0.411817361,1,1,0.528923354,3,0.399331712,0.02875,0.571428571,0.02875,"metacognition_realexp","ack",85.01985251,1,"2013_Dec_12_1052",NA
"158",2,"down",3,0,3,0,0,7,7,5,2,4.858567203,1,0,0.881871053,1,0.552248764,0.02875,0.5,0.02875,"metacognition_realexp","ack",85.01985251,1,"2013_Dec_12_1052",NA
"159",1,"left",3,0,3,0,0,8,8,6,1,0.38836567,2,0,1.811155617,2,4.575503334,0.02875,0.444444444,0.02875,"metacognition_realexp","ack",85.01985251,1,"2013_Dec_12_1052",NA
"160",1,"left",3,0,3,0,0,9,9,4,1,0.776564633,2,0,0.811252638,1,0.281697879,0.02875,0.4,0.02875,"metacognition_realexp","ack",85.01985251,1,"2013_Dec_12_1052",NA
"161",2,"down",3,0,3,0,1,0,10,1,1,0.400107878,2,1,1.787740502,1,0.775720706,0.02875,0.454545455,0.02875,"metacognition_realexp","ack",85.01985251,1,"2013_Dec_12_1052",NA
"162",1,"left",3,0,3,0,1,1,11,2,2,8.975778303,1,1,0.834275436,3,1.011751063,0.02875,0.5,0.02875,"metacognition_realexp","ack",85.01985251,1,"2013_Dec_12_1052",NA
"163",1,"left",3,0,3,0,1,2,12,6,1,0.329842511,2,0,1.210976283,3,0.446243179,0.02875,0.461538462,0.02875,"metacognition_realexp","ack",85.01985251,1,"2013_Dec_12_1052",NA
"164",1,"left",3,0,3,0,1,3,13,8,1,0.353204881,2,0,4.36377745,1,0.411088935,0.02875,0.428571429,0.02875,"metacognition_realexp","ack",85.01985251,1,"2013_Dec_12_1052",NA
"165",2,"down",3,0,3,0,1,4,14,5,1,0.38844498,2,1,0.905300799,3,0.599318468,0.02875,0.466666667,0.02875,"metacognition_realexp","ack",85.01985251,1,"2013_Dec_12_1052",NA
"166",2,"down",3,0,3,0,1,5,15,9,1,0.317741865,1,0,0.987762678,2,0.787496025,0.02875,0.4375,0.02875,"metacognition_realexp","ack",85.01985251,1,"2013_Dec_12_1052",NA
"167",1,"left",3,0,3,0,1,6,16,4,2,4.141020843,1,1,0.952424018,2,0.775769987,0.02875,0.470588235,0.02875,"metacognition_realexp","ack",85.01985251,1,"2013_Dec_12_1052",NA
"168",2,"down",3,0,3,0,1,7,17,7,3,0.411885121,2,1,1.351740714,2,1.44699047,0.02875,0.5,0.02875,"metacognition_realexp","ack",85.01985251,1,"2013_Dec_12_1052",NA
"169",1,"left",3,0,3,0,1,8,18,0,2,4.493781816,1,1,0.5643625,2,1.75218778,0.02875,0.526315789,0.02875,"metacognition_realexp","ack",85.01985251,1,"2013_Dec_12_1052",NA
"170",2,"down",3,0,3,0,1,9,19,3,2,7.787827897,1,0,1.305324361,3,0.658148089,0.02875,0.5,0.02875,"metacognition_realexp","ack",85.01985251,1,"2013_Dec_12_1052",NA
"171",2,"down",3,0,3,0,2,0,20,9,1,0.364833898,1,0,2.234697476,3,3.716755564,0.02875,0.476190476,0.02875,"metacognition_realexp","ack",85.01985251,1,"2013_Dec_12_1052",NA
"172",1,"left",3,0,3,0,2,1,21,4,3,1.176622846,2,0,0.964114635,1,1.234560415,0.02875,0.454545455,0.02875,"metacognition_realexp","ack",85.01985251,1,"2013_Dec_12_1052",NA
"173",2,"down",3,0,3,0,2,2,22,3,2,0.364832358,2,1,0.776024474,2,0.82279888,0.02875,0.47826087,0.02875,"metacognition_realexp","ack",85.01985251,1,"2013_Dec_12_1052",NA
"174",1,"left",3,0,3,0,2,3,23,8,2,0.611915767,2,0,0.399488408,3,0.799324089,0.02875,0.458333333,0.02875,"metacognition_realexp","ack",85.01985251,1,"2013_Dec_12_1052",NA
"175",1,"left",3,0,3,0,2,4,24,0,3,1.764727329,1,1,0.97603741,3,0.693336213,0.02875,0.48,0.02875,"metacognition_realexp","ack",85.01985251,1,"2013_Dec_12_1052",NA
"176",2,"down",3,0,3,0,2,5,25,1,3,2.223476177,2,1,0.752471142,3,0.599291517,0.02875,0.5,0.02875,"metacognition_realexp","ack",85.01985251,1,"2013_Dec_12_1052",NA
"177",1,"left",3,0,3,0,2,6,26,6,2,1.141230285,2,0,0.999471776,3,0.952255771,0.02875,0.481481481,0.02875,"metacognition_realexp","ack",85.01985251,1,"2013_Dec_12_1052",NA
"178",2,"down",3,0,3,0,2,7,27,7,2,1.411734585,2,1,0.658335586,3,0.622866024,0.02875,0.5,0.02875,"metacognition_realexp","ack",85.01985251,1,"2013_Dec_12_1052",NA
"179",2,"down",3,0,3,0,2,8,28,5,2,1.5882889,2,1,1.164226132,1,0.975754818,0.02875,0.517241379,0.02875,"metacognition_realexp","ack",85.01985251,1,"2013_Dec_12_1052",NA
"180",1,"left",3,0,3,0,2,9,29,2,1,0.059061778,2,0,0.834658514,3,0.7522694,0.02875,0.5,0.02875,"metacognition_realexp","ack",85.01985251,1,"2013_Dec_12_1052",NA
"181",1,"left",3,0,3,0,3,0,30,4,1,1.505926737,2,0,0.823057987,3,0.34044742,0.02875,0.483870968,0.02875,"metacognition_realexp","ack",85.01985251,1,"2013_Dec_12_1052",NA
"182",1,"left",3,0,3,0,3,1,31,6,3,0.894211556,1,1,1.552373505,2,0.975780228,0.02875,0.5,0.02875,"metacognition_realexp","ack",85.01985251,1,"2013_Dec_12_1052",NA
"183",1,"left",3,0,3,0,3,2,32,8,2,0.670675703,1,1,1.164279263,2,2.199100864,0.02875,0.515151515,0.02875,"metacognition_realexp","ack",85.01985251,1,"2013_Dec_12_1052",NA
"184",2,"down",3,0,3,0,3,3,33,9,1,0.42364581,1,0,3.540473831,1,0.375800325,0.02875,0.5,0.02875,"metacognition_realexp","ack",85.01985251,1,"2013_Dec_12_1052",NA
"185",2,"down",3,0,3,0,3,4,34,5,1,0.341357182,2,1,0.68220616,1,0.975330929,0.02875,0.514285714,0.02875,"metacognition_realexp","ack",85.01985251,1,"2013_Dec_12_1052",NA
"186",1,"left",3,0,3,0,3,5,35,2,3,0.835401955,2,0,0.634831149,2,1.552175999,0.02875,0.5,0.02875,"metacognition_realexp","ack",85.01985251,1,"2013_Dec_12_1052",NA
"187",2,"down",3,0,3,0,3,6,36,1,2,0.353075905,1,0,0.775913593,1,1.222774702,0.02875,0.486486486,0.02875,"metacognition_realexp","ack",85.01985251,1,"2013_Dec_12_1052",NA
"188",2,"down",3,0,3,0,3,7,37,7,3,0.376598436,2,1,0.881829088,3,0.51697825,0.02875,0.5,0.02875,"metacognition_realexp","ack",85.01985251,1,"2013_Dec_12_1052",NA
"189",2,"down",3,0,3,0,3,8,38,3,2,3.57632955,1,0,0.693748936,2,1.222707711,0.02875,0.487179487,0.02875,"metacognition_realexp","ack",85.01985251,1,"2013_Dec_12_1052",NA
"190",1,"left",3,0,3,0,3,9,39,0,3,1.940990967,2,0,0.917043007,3,0.775790007,0.02875,0.475,0.02875,"metacognition_realexp","ack",85.01985251,1,"2013_Dec_12_1052",NA
"191",2,"down",3,0,3,0,4,0,40,7,3,0.258958444,2,1,0.693638441,3,0.622828679,0.02875,0.487804878,0.02875,"metacognition_realexp","ack",85.01985251,1,"2013_Dec_12_1052",NA
"192",1,"left",3,0,3,0,4,1,41,4,2,1.705923503,1,1,0.881822928,1,2.834450997,0.02875,0.5,0.02875,"metacognition_realexp","ack",85.01985251,1,"2013_Dec_12_1052",NA
"193",2,"down",3,0,3,0,4,2,42,3,1,0.341286341,2,1,2.293504382,2,0.328778362,0.02875,0.511627907,0.02875,"metacognition_realexp","ack",85.01985251,1,"2013_Dec_12_1052",NA
"194",1,"left",3,0,3,0,4,3,43,2,3,0.329652319,2,0,0.940498548,2,1.046368613,0.02875,0.5,0.02875,"metacognition_realexp","ack",85.01985251,1,"2013_Dec_12_1052",NA
"195",1,"left",3,0,3,0,4,4,44,8,1,0.306065107,2,0,0.893544731,3,0.375828045,0.02875,0.488888889,0.02875,"metacognition_realexp","ack",85.01985251,1,"2013_Dec_12_1052",NA
"196",2,"down",3,0,3,0,4,5,45,1,2,0.376139513,2,1,0.494041693,3,0.44640334,0.02875,0.5,0.02875,"metacognition_realexp","ack",85.01985251,1,"2013_Dec_12_1052",NA
"197",1,"left",3,0,3,0,4,6,46,6,1,0.329545673,2,0,1.470032517,1,0.96400876,0.02875,0.489361702,0.02875,"metacognition_realexp","ack",85.01985251,1,"2013_Dec_12_1052",NA
"198",2,"down",3,0,3,0,4,7,47,9,2,3.588091779,2,1,1.24658175,1,2.175666113,0.02875,0.5,0.02875,"metacognition_realexp","ack",85.01985251,1,"2013_Dec_12_1052",NA
"199",1,"left",3,0,3,0,4,8,48,0,2,4.105832719,1,1,4.457911081,3,2.128618355,0.02875,0.510204082,0.02875,"metacognition_realexp","ack",85.01985251,1,"2013_Dec_12_1052",NA
"200",2,"down",3,0,3,0,4,9,49,5,3,1.611832222,2,1,0.599556014,3,0.692388721,0.02875,0.52,0.02875,"metacognition_realexp","ack",85.01985251,1,"2013_Dec_12_1052",NA
"201",1,"left",4,0,4,0,0,0,0,6,3,0.270748392,2,0,0.293416217,3,0.25792394,0.02875,0,0.02875,"metacognition_realexp","ack",85.01985251,1,"2013_Dec_12_1052",NA
"202",1,"left",4,0,4,0,0,1,1,4,1,0.106043316,2,0,2.822856245,2,0.246366149,0.02875,0,0.02875,"metacognition_realexp","ack",85.01985251,1,"2013_Dec_12_1052",NA
"203",1,"left",4,0,4,0,0,2,2,0,2,1.517694355,2,0,0.493580844,1,0.881663152,0.02875,0,0.02875,"metacognition_realexp","ack",85.01985251,1,"2013_Dec_12_1052",NA
"204",2,"down",4,0,4,0,0,3,3,7,1,0.28246365,2,1,1.17593985,1,1.740478297,0.02875,0.25,0.02875,"metacognition_realexp","ack",85.01985251,1,"2013_Dec_12_1052",NA
"205",2,"down",4,0,4,0,0,4,4,1,2,0.306020447,2,1,0.646588757,3,0.846330651,0.02875,0.4,0.02875,"metacognition_realexp","ack",85.01985251,1,"2013_Dec_12_1052",NA
"206",2,"down",4,0,4,0,0,5,5,5,3,0.317755725,2,1,0.752687129,1,0.693180287,0.02875,0.5,0.02875,"metacognition_realexp","ack",85.01985251,1,"2013_Dec_12_1052",NA
"207",1,"left",4,0,4,0,0,6,6,2,2,4.446848789,1,1,0.564239299,3,1.081615642,0.02875,0.571428571,0.02875,"metacognition_realexp","ack",85.01985251,1,"2013_Dec_12_1052",NA
"208",2,"down",4,0,4,0,0,7,7,3,1,0.835294539,1,0,1.046578824,1,0.211139524,0.02875,0.5,0.02875,"metacognition_realexp","ack",85.01985251,1,"2013_Dec_12_1052",NA
"209",2,"down",4,0,4,0,0,8,8,9,2,0.929466286,2,1,0.975993135,2,0.457942266,0.02875,0.555555556,0.02875,"metacognition_realexp","ack",85.01985251,1,"2013_Dec_12_1052",NA
"210",1,"left",4,0,4,0,0,9,9,8,1,0.306010437,1,1,1.517073345,2,0.387588349,0.02875,0.6,0.02875,"metacognition_realexp","ack",85.01985251,1,"2013_Dec_12_1052",NA
"211",1,"left",4,0,4,0,1,0,10,6,1,0.329523343,1,1,0.940649854,3,0.964003755,0.02875,0.636363636,0.02875,"metacognition_realexp","ack",85.01985251,1,"2013_Dec_12_1052",NA
"212",2,"down",4,0,4,0,1,1,11,7,1,0.294267074,1,0,0.775937078,1,0.211119504,0.02875,0.583333333,0.02875,"metacognition_realexp","ack",85.01985251,1,"2013_Dec_12_1052",NA
"213",2,"down",4,0,4,0,1,2,12,1,2,0.223636723,2,1,0.775827352,3,1.187512272,0.02875,0.615384615,0.02875,"metacognition_realexp","ack",85.01985251,1,"2013_Dec_12_1052",NA
"214",1,"left",4,0,4,0,1,3,13,8,2,0.070743541,2,0,0.905392045,2,0.269922175,0.02875,0.571428571,0.02875,"metacognition_realexp","ack",85.01985251,1,"2013_Dec_12_1052",NA
"215",2,"down",4,0,4,0,1,4,14,9,1,0.541297352,2,1,1.787635011,2,1.78747947,0.02875,0.6,0.02875,"metacognition_realexp","ack",85.01985251,1,"2013_Dec_12_1052",NA
"216",2,"down",4,0,4,0,1,5,15,3,2,0.435427673,2,1,0.928823331,2,1.399418337,0.02875,0.625,0.02875,"metacognition_realexp","ack",85.01985251,1,"2013_Dec_12_1052",NA
"217",1,"left",4,0,4,0,1,6,16,4,2,0.0119555,2,0,0.728827335,1,0.928718995,0.02875,0.588235294,0.02875,"metacognition_realexp","ack",85.01985251,1,"2013_Dec_12_1052",NA
"218",1,"left",4,0,4,0,1,7,17,2,1,0.306016982,2,0,2.987562861,3,1.658061848,0.02875,0.555555556,0.02875,"metacognition_realexp","ack",85.01985251,1,"2013_Dec_12_1052",NA
"219",1,"left",4,0,4,0,1,8,18,0,1,0.341307517,2,0,1.023017408,1,0.364011147,0.02875,0.526315789,0.02875,"metacognition_realexp","ack",85.01985251,1,"2013_Dec_12_1052",NA
"220",2,"down",4,0,4,0,1,9,19,5,1,0.317710294,1,0,1.364208268,1,0.881769797,0.02875,0.5,0.02875,"metacognition_realexp","ack",85.01985251,1,"2013_Dec_12_1052",NA
"221",1,"left",4,0,4,0,2,0,20,4,2,1.553031861,2,0,0.446514606,1,1.975763288,0.02875,0.476190476,0.02875,"metacognition_realexp","ack",85.01985251,1,"2013_Dec_12_1052",NA
"222",2,"down",4,0,4,0,2,1,21,3,1,0.270645211,2,1,0.870064935,2,0.705231267,0.02875,0.5,0.02875,"metacognition_realexp","ack",85.01985251,1,"2013_Dec_12_1052",NA
"223",2,"down",4,0,4,0,2,2,22,9,1,0.435372618,2,1,0.564243919,3,1.293499762,0.02875,0.52173913,0.02875,"metacognition_realexp","ack",85.01985251,1,"2013_Dec_12_1052",NA
"224",1,"left",4,0,4,0,2,3,23,8,1,0.117788604,2,0,0.94070876,1,0.387529828,0.02875,0.5,0.02875,"metacognition_realexp","ack",85.01985251,1,"2013_Dec_12_1052",NA
"225",1,"left",4,0,4,0,2,4,24,2,3,0.400556406,1,1,1.22251752,3,0.611110726,0.02875,0.52,0.02875,"metacognition_realexp","ack",85.01985251,1,"2013_Dec_12_1052",NA
"226",2,"down",4,0,4,0,2,5,25,1,2,0.458947509,2,1,0.693601865,1,4.163766824,0.02875,0.538461538,0.02875,"metacognition_realexp","ack",85.01985251,1,"2013_Dec_12_1052",NA
"227",1,"left",4,0,4,0,2,6,26,6,1,0.329523343,2,0,1.199465462,3,3.786663648,0.02875,0.518518519,0.02875,"metacognition_realexp","ack",85.01985251,1,"2013_Dec_12_1052",NA
"228",2,"down",4,0,4,0,2,7,27,7,2,5.799765687,1,0,1.117101759,2,1.058142006,0.02875,0.5,0.02875,"metacognition_realexp","ack",85.01985251,1,"2013_Dec_12_1052",NA
"229",2,"down",4,0,4,0,2,8,28,5,1,0.341237061,1,0,0.846549718,1,0.375804175,0.02875,0.482758621,0.02875,"metacognition_realexp","ack",85.01985251,1,"2013_Dec_12_1052",NA
"230",1,"left",4,0,4,0,2,9,29,0,1,0.411903986,1,1,0.83478518,1,1.481050535,0.02875,0.5,0.02875,"metacognition_realexp","ack",85.01985251,1,"2013_Dec_12_1052",NA
"231",1,"left",4,0,4,0,3,0,30,8,1,3.235189895,2,0,0.917123088,2,1.046382473,0.02875,0.483870968,0.02875,"metacognition_realexp","ack",85.01985251,1,"2013_Dec_12_1052",NA
"232",2,"down",4,0,4,0,3,1,31,5,1,1.058953593,2,1,2.211161085,1,0.363979191,0.02875,0.5,0.02875,"metacognition_realexp","ack",85.01985251,1,"2013_Dec_12_1052",NA
"233",2,"down",4,0,4,0,3,2,32,1,2,0.317756495,2,1,0.622209594,3,0.529576705,0.02875,0.515151515,0.02875,"metacognition_realexp","ack",85.01985251,1,"2013_Dec_12_1052",NA
"234",1,"left",4,0,4,0,3,3,33,0,2,0.164856382,2,0,0.59959567,3,0.399266261,0.02875,0.5,0.02875,"metacognition_realexp","ack",85.01985251,1,"2013_Dec_12_1052",NA
"235",1,"left",4,0,4,0,3,4,34,4,1,0.341926986,2,0,1.011227844,3,0.611108031,0.02875,0.485714286,0.02875,"metacognition_realexp","ack",85.01985251,1,"2013_Dec_12_1052",NA
"236",2,"down",4,0,4,0,3,5,35,3,1,0.364501255,2,1,2.48174508,3,0.528725463,0.02875,0.5,0.02875,"metacognition_realexp","ack",85.01985251,1,"2013_Dec_12_1052",NA
"237",1,"left",4,0,4,0,3,6,36,6,2,4.88211784,2,0,0.917175833,3,1.787488325,0.02875,0.486486486,0.02875,"metacognition_realexp","ack",85.01985251,1,"2013_Dec_12_1052",NA
"238",2,"down",4,0,4,0,3,7,37,7,1,0.082485364,2,1,0.823061837,1,0.51700905,0.02875,0.5,0.02875,"metacognition_realexp","ack",85.01985251,1,"2013_Dec_12_1052",NA
"239",2,"down",4,0,4,0,3,8,38,9,1,0.38840263,2,1,1.48176048,1,1.458094728,0.02875,0.512820513,0.02875,"metacognition_realexp","ack",85.01985251,1,"2013_Dec_12_1052",NA
"240",1,"left",4,0,4,0,3,9,39,2,1,0.329556068,2,0,1.305337836,2,0.575801711,0.02875,0.5,0.02875,"metacognition_realexp","ack",85.01985251,1,"2013_Dec_12_1052",NA
"241",1,"left",4,0,4,0,4,0,40,4,2,0.35305242,2,0,0.540670183,3,0.717135562,0.02875,0.487804878,0.02875,"metacognition_realexp","ack",85.01985251,1,"2013_Dec_12_1052",NA
"242",2,"down",4,0,4,0,4,1,41,9,3,0.858886756,1,0,0.364243688,2,1.140457199,0.02875,0.476190476,0.02875,"metacognition_realexp","ack",85.01985251,1,"2013_Dec_12_1052",NA
"243",2,"down",4,0,4,0,4,2,42,7,1,0.447155636,2,1,1.705366404,3,0.44634559,0.02875,0.488372093,0.02875,"metacognition_realexp","ack",85.01985251,1,"2013_Dec_12_1052",NA
"244",1,"left",4,0,4,0,4,3,43,6,1,0.92936657,2,0,1.999427885,2,1.622935325,0.02875,0.477272727,0.02875,"metacognition_realexp","ack",85.01985251,1,"2013_Dec_12_1052",NA
"245",1,"left",4,0,4,0,4,4,44,2,1,0.364874323,2,0,0.599549084,2,0.540147348,0.02875,0.466666667,0.02875,"metacognition_realexp","ack",85.01985251,1,"2013_Dec_12_1052",NA
"246",2,"down",4,0,4,0,4,5,45,1,1,0.317802695,2,1,0.458369235,1,0.387544458,0.02875,0.47826087,0.02875,"metacognition_realexp","ack",85.01985251,1,"2013_Dec_12_1052",NA
"247",2,"down",4,0,4,0,4,6,46,3,1,0.329524113,2,1,1.01136683,1,0.363895646,0.02875,0.489361702,0.02875,"metacognition_realexp","ack",85.01985251,1,"2013_Dec_12_1052",NA
"248",2,"down",4,0,4,0,4,7,47,5,1,0.306224498,2,1,0.434564111,1,0.433694774,0.02875,0.5,0.02875,"metacognition_realexp","ack",85.01985251,1,"2013_Dec_12_1052",NA
"249",1,"left",4,0,4,0,4,8,48,8,1,0.353065895,2,0,0.564230829,1,0.469899306,0.02875,0.489795918,0.02875,"metacognition_realexp","ack",85.01985251,1,"2013_Dec_12_1052",NA
"250",1,"left",4,0,4,0,4,9,49,0,1,0.400120968,1,1,0.411288367,1,0.540494621,0.02875,0.5,0.02875,"metacognition_realexp","ack",85.01985251,1,"2013_Dec_12_1052",NA
"251",2,"down",5,0,5,0,0,0,0,7,1,15.70518545,1,0,1.093119148,1,0.657791961,0.02875,0,0.02875,"metacognition_realexp","ack",85.01985251,1,"2013_Dec_12_1052",NA
"252",1,"left",5,0,5,0,0,1,1,8,1,0.682375561,2,0,1.117146419,1,0.705181987,0.02875,0,0.02875,"metacognition_realexp","ack",85.01985251,1,"2013_Dec_12_1052",NA
"253",2,"down",5,0,5,0,0,2,2,9,1,0.353056655,2,1,0.528969555,1,0.469880441,0.02875,0.333333333,0.02875,"metacognition_realexp","ack",85.01985251,1,"2013_Dec_12_1052",NA
"254",1,"left",5,0,5,0,0,3,3,4,1,0.376590351,2,0,1.21125541,1,0.705151572,0.02875,0.25,0.02875,"metacognition_realexp","ack",85.01985251,1,"2013_Dec_12_1052",NA
"255",1,"left",5,0,5,0,0,4,4,2,1,0.364843908,2,0,0.622991535,1,0.44644415,0.02875,0.2,0.02875,"metacognition_realexp","ack",85.01985251,1,"2013_Dec_12_1052",NA
"256",1,"left",5,0,5,0,0,5,5,6,1,0.306189463,2,0,0.422830758,1,0.422843848,0.02875,0.166666667,0.02875,"metacognition_realexp","ack",85.01985251,1,"2013_Dec_12_1052",NA
"257",2,"down",5,0,5,0,0,6,6,3,1,0.247208535,2,1,0.399920381,1,0.481213006,0.02875,0.285714286,0.02875,"metacognition_realexp","ack",85.01985251,1,"2013_Dec_12_1052",NA
"258",1,"left",5,0,5,0,0,7,7,0,1,0.835324184,2,0,0.517223112,2,0.493413753,0.02875,0.25,0.02875,"metacognition_realexp","ack",85.01985251,1,"2013_Dec_12_1052",NA
"259",2,"down",5,0,5,0,0,8,8,1,1,0.388322549,2,1,0.634802659,2,0.317012284,0.02875,0.333333333,0.02875,"metacognition_realexp","ack",85.01985251,1,"2013_Dec_12_1052",NA
"260",2,"down",5,0,5,0,0,9,9,5,1,3.047019653,2,1,1.011197429,1,2.481576449,0.02875,0.4,0.02875,"metacognition_realexp","ack",85.01985251,1,"2013_Dec_12_1052",NA
"261",1,"left",5,0,5,0,1,0,10,8,1,0.917740633,2,0,0.623051211,2,0.434594526,0.02875,0.363636364,0.02875,"metacognition_realexp","ack",85.01985251,1,"2013_Dec_12_1052",NA
"262",1,"left",5,0,5,0,1,1,11,6,1,1.105974015,2,0,0.658296315,2,1.211072919,0.02875,0.333333333,0.02875,"metacognition_realexp","ack",85.01985251,1,"2013_Dec_12_1052",NA
"263",1,"left",5,0,5,0,1,2,12,4,2,0.870647444,2,0,1.928866451,2,0.387663424,0.02875,0.307692308,0.02875,"metacognition_realexp","ack",85.01985251,1,"2013_Dec_12_1052",NA
"264",1,"left",5,0,5,0,1,3,13,0,2,0.682416757,1,1,0.552557537,2,0.481575679,0.02875,0.357142857,0.02875,"metacognition_realexp","ack",85.01985251,1,"2013_Dec_12_1052",NA
"265",2,"down",5,0,5,0,1,4,14,1,1,0.341252846,1,0,0.881856038,1,1.293379642,0.02875,0.333333333,0.02875,"metacognition_realexp","ack",85.01985251,1,"2013_Dec_12_1052",NA
"266",2,"down",5,0,5,0,1,5,15,5,1,0.282576071,2,1,0.375866931,3,0.599407018,0.02875,0.375,0.02875,"metacognition_realexp","ack",85.01985251,1,"2013_Dec_12_1052",NA
"267",1,"left",5,0,5,0,1,6,16,2,1,0.469978232,2,0,0.552905195,1,0.281733684,0.02875,0.352941176,0.02875,"metacognition_realexp","ack",85.01985251,1,"2013_Dec_12_1052",NA
"268",2,"down",5,0,5,0,1,7,17,3,1,0.670758094,2,1,0.505324592,1,0.293437392,0.02875,0.388888889,0.02875,"metacognition_realexp","ack",85.01985251,1,"2013_Dec_12_1052",NA
"269",2,"down",5,0,5,0,1,8,18,9,1,5.423260036,2,1,0.681846952,1,0.493535414,0.02875,0.421052632,0.02875,"metacognition_realexp","ack",85.01985251,1,"2013_Dec_12_1052",NA
"270",2,"down",5,0,5,0,1,9,19,7,1,0.411867796,2,1,0.79951197,1,0.493418758,0.02875,0.45,0.02875,"metacognition_realexp","ack",85.01985251,1,"2013_Dec_12_1052",NA
"271",2,"down",5,0,5,0,2,0,20,9,1,0.553082296,2,1,0.587730646,1,0.387542533,0.02875,0.476190476,0.02875,"metacognition_realexp","ack",85.01985251,1,"2013_Dec_12_1052",NA
"272",1,"left",5,0,5,0,2,1,21,0,1,0.35306397,2,0,1.599462844,1,0.834614623,0.02875,0.454545455,0.02875,"metacognition_realexp","ack",85.01985251,1,"2013_Dec_12_1052",NA
"273",2,"down",5,0,5,0,2,2,22,1,2,1.647063851,2,1,0.740671954,3,0.422821903,0.02875,0.47826087,0.02875,"metacognition_realexp","ack",85.01985251,1,"2013_Dec_12_1052",NA
"274",2,"down",5,0,5,0,2,3,23,5,1,1.588258485,2,1,1.270104282,2,2.187367126,0.02875,0.5,0.02875,"metacognition_realexp","ack",85.01985251,1,"2013_Dec_12_1052",NA
"275",2,"down",5,0,5,0,2,4,24,7,1,83.88800107,1,0,0.740652318,3,0.493503073,0.02875,0.48,0.02875,"metacognition_realexp","ack",85.01985251,1,"2013_Dec_12_1052",NA
"276",2,"down",5,0,5,0,2,5,25,3,1,2.858733525,2,1,0.681887762,3,0.680708498,0.02875,0.5,0.02875,"metacognition_realexp","ack",85.01985251,1,"2013_Dec_12_1052",NA
"277",1,"left",5,0,5,0,2,6,26,6,1,0.35306628,2,0,0.599489794,1,0.71696077,0.02875,0.481481481,0.02875,"metacognition_realexp","ack",85.01985251,1,"2013_Dec_12_1052",NA
"278",1,"left",5,0,5,0,2,7,27,8,2,1.187672433,2,0,0.976550234,2,5.868963441,0.02875,0.464285714,0.02875,"metacognition_realexp","ack",85.01985251,1,"2013_Dec_12_1052",NA
"279",1,"left",5,0,5,0,2,8,28,4,1,0.352888023,2,0,0.458536326,2,0.411127435,0.02875,0.448275862,0.02875,"metacognition_realexp","ack",85.01985251,1,"2013_Dec_12_1052",NA
"280",1,"left",5,0,5,0,2,9,29,2,1,1.82349843,2,0,0.79953045,1,0.622841384,0.02875,0.433333333,0.02875,"metacognition_realexp","ack",85.01985251,1,"2013_Dec_12_1052",NA
"281",2,"down",5,0,5,0,3,0,30,5,2,0.753053652,2,1,0.634716033,2,0.716981946,0.02875,0.451612903,0.02875,"metacognition_realexp","ack",85.01985251,1,"2013_Dec_12_1052",NA
"282",2,"down",5,0,5,0,3,1,31,9,2,0.517760576,2,1,0.5289915,1,0.646265355,0.02875,0.46875,0.02875,"metacognition_realexp","ack",85.01985251,1,"2013_Dec_12_1052",NA
"283",2,"down",5,0,5,0,3,2,32,1,2,0.270695647,2,1,0.505374643,2,0.611230077,0.02875,0.484848485,0.02875,"metacognition_realexp","ack",85.01985251,1,"2013_Dec_12_1052",NA
"284",1,"left",5,0,5,0,3,3,33,6,2,1.600030723,2,0,0.423039045,3,1.140592335,0.02875,0.470588235,0.02875,"metacognition_realexp","ack",85.01985251,1,"2013_Dec_12_1052",NA
"285",2,"down",5,0,5,0,3,4,34,3,2,0.505971782,2,1,0.658337511,2,0.799270573,0.02875,0.485714286,0.02875,"metacognition_realexp","ack",85.01985251,1,"2013_Dec_12_1052",NA
"286",1,"left",5,0,5,0,3,5,35,4,2,1.482448866,1,1,0.893507001,3,0.399364437,0.02875,0.5,0.02875,"metacognition_realexp","ack",85.01985251,1,"2013_Dec_12_1052",NA
"287",1,"left",5,0,5,0,3,6,36,2,1,0.329512948,2,0,0.705362939,1,1.211059444,0.02875,0.486486486,0.02875,"metacognition_realexp","ack",85.01985251,1,"2013_Dec_12_1052",NA
"288",2,"down",5,0,5,0,3,7,37,7,2,2.329401297,1,0,0.893686027,3,1.563883942,0.02875,0.473684211,0.02875,"metacognition_realexp","ack",85.01985251,1,"2013_Dec_12_1052",NA
"289",1,"left",5,0,5,0,3,8,38,0,1,0.306000427,1,1,0.858323112,3,0.458168263,0.02875,0.487179487,0.02875,"metacognition_realexp","ack",85.01985251,1,"2013_Dec_12_1052",NA
"290",1,"left",5,0,5,0,3,9,39,8,1,0.38840956,1,1,0.799422649,1,0.493420298,0.02875,0.5,0.02875,"metacognition_realexp","ack",85.01985251,1,"2013_Dec_12_1052",NA
"291",1,"left",5,0,5,0,4,0,40,6,2,1.011858479,2,0,0.611302843,1,0.516940519,0.02875,0.487804878,0.02875,"metacognition_realexp","ack",85.01985251,1,"2013_Dec_12_1052",NA
"292",1,"left",5,0,5,0,4,1,41,8,1,0.400116348,2,0,0.623097026,2,0.505067025,0.02875,0.476190476,0.02875,"metacognition_realexp","ack",85.01985251,1,"2013_Dec_12_1052",NA
"293",2,"down",5,0,5,0,4,2,42,9,1,0.564783694,2,1,0.399507658,1,0.434673837,0.02875,0.488372093,0.02875,"metacognition_realexp","ack",85.01985251,1,"2013_Dec_12_1052",NA
"294",1,"left",5,0,5,0,4,3,43,2,2,0.082525404,2,0,1.375919676,2,0.669858727,0.02875,0.477272727,0.02875,"metacognition_realexp","ack",85.01985251,1,"2013_Dec_12_1052",NA
"295",1,"left",5,0,5,0,4,4,44,0,1,0.35304934,1,1,0.493633205,1,1.199318391,0.02875,0.488888889,0.02875,"metacognition_realexp","ack",85.01985251,1,"2013_Dec_12_1052",NA
"296",2,"down",5,0,5,0,4,5,45,5,1,0.270731067,1,0,1.175926375,1,0.317059639,0.02875,0.47826087,0.02875,"metacognition_realexp","ack",85.01985251,1,"2013_Dec_12_1052",NA
"297",1,"left",5,0,5,0,4,6,46,4,2,0.270691797,1,1,0.646578362,3,0.646368151,0.02875,0.489361702,0.02875,"metacognition_realexp","ack",85.01985251,1,"2013_Dec_12_1052",NA
"298",2,"down",5,0,5,0,4,7,47,7,2,2.152940153,1,0,0.869917478,3,0.399462228,0.02875,0.479166667,0.02875,"metacognition_realexp","ack",85.01985251,1,"2013_Dec_12_1052",NA
"299",2,"down",5,0,5,0,4,8,48,3,1,0.317764965,1,0,0.670095119,2,0.622870644,0.02875,0.469387755,0.02875,"metacognition_realexp","ack",85.01985251,1,"2013_Dec_12_1052",NA
"300",2,"down",5,0,5,0,4,9,49,1,1,0.35308553,1,0,1.375918136,1,0.658144624,0.02875,0.46,0.02875,"metacognition_realexp","ack",85.01985251,1,"2013_Dec_12_1052",NA
"301",2,"down",6,0,6,0,0,0,0,9,2,2.141140579,2,1,1.105162429,2,0.72882618,0.02875,1,0.02875,"metacognition_realexp","ack",85.01985251,1,"2013_Dec_12_1052",NA
"302",1,"left",6,0,6,0,0,1,1,6,1,0.470667772,1,1,1.670050459,1,1.19926988,0.02875,1,0.02875,"metacognition_realexp","ack",85.01985251,1,"2013_Dec_12_1052",NA
"303",1,"left",6,0,6,0,0,2,2,4,1,0.38844729,2,0,0.564121873,3,0.940492003,0.02875,0.666666667,0.02875,"metacognition_realexp","ack",85.01985251,1,"2013_Dec_12_1052",NA
"304",1,"left",6,0,6,0,0,3,3,0,1,0.388322549,2,0,0.752463442,3,0.999287744,0.02875,0.5,0.02875,"metacognition_realexp","ack",85.01985251,1,"2013_Dec_12_1052",NA
"305",1,"left",6,0,6,0,0,4,4,2,2,2.458816608,2,0,0.76416099,2,0.411133595,0.02875,0.4,0.02875,"metacognition_realexp","ack",85.01985251,1,"2013_Dec_12_1052",NA
"306",2,"down",6,0,6,0,0,5,5,3,2,1.58832201,1,0,0.575961102,2,0.599375448,0.02875,0.333333333,0.02875,"metacognition_realexp","ack",85.01985251,1,"2013_Dec_12_1052",NA
"307",1,"left",6,0,6,0,0,6,6,8,2,0.811847853,2,0,0.575985743,2,0.469982467,0.02875,0.285714286,0.02875,"metacognition_realexp","ack",85.01985251,1,"2013_Dec_12_1052",NA
"308",2,"down",6,0,6,0,0,7,7,5,1,3.588098709,2,1,1.422997849,1,3.010904056,0.02875,0.375,0.02875,"metacognition_realexp","ack",85.01985251,1,"2013_Dec_12_1052",NA
"309",2,"down",6,0,6,0,0,8,8,7,1,4.917396825,1,0,0.717154042,2,1.905142563,0.02875,0.333333333,0.02875,"metacognition_realexp","ack",85.01985251,1,"2013_Dec_12_1052",NA
"310",2,"down",6,0,6,0,0,9,9,1,1,0.364803483,2,1,1.62297652,2,0.599307303,0.02875,0.4,0.02875,"metacognition_realexp","ack",85.01985251,1,"2013_Dec_12_1052",NA
"311",1,"left",6,0,6,0,1,0,10,4,1,0.62358444,2,0,0.564238144,2,0.916990262,0.02875,0.363636364,0.02875,"metacognition_realexp","ack",85.01985251,1,"2013_Dec_12_1052",NA
"312",2,"down",6,0,6,0,1,1,11,5,1,3.717607961,2,1,1.599326168,3,1.022845696,0.02875,0.416666667,0.02875,"metacognition_realexp","ack",85.01985251,1,"2013_Dec_12_1052",NA
"313",1,"left",6,0,6,0,1,2,12,0,2,0.400135983,2,0,0.623072386,2,0.740440182,0.02875,0.384615385,0.02875,"metacognition_realexp","ack",85.01985251,1,"2013_Dec_12_1052",NA
"314",2,"down",6,0,6,0,1,3,13,1,2,0.600753759,2,1,0.517102991,3,0.928742095,0.02875,0.428571429,0.02875,"metacognition_realexp","ack",85.01985251,1,"2013_Dec_12_1052",NA
"315",2,"down",6,0,6,0,1,4,14,7,1,0.353046645,2,1,0.79951813,1,2.905065947,0.02875,0.466666667,0.02875,"metacognition_realexp","ack",85.01985251,1,"2013_Dec_12_1052",NA
"316",1,"left",6,0,6,0,1,5,15,6,1,0.364784233,1,1,1.21122384,1,0.317042314,0.02875,0.5,0.02875,"metacognition_realexp","ack",85.01985251,1,"2013_Dec_12_1052",NA
"317",2,"down",6,0,6,0,1,6,16,3,1,0.658954671,1,0,1.481782811,1,0.3051796,0.02875,0.470588235,0.02875,"metacognition_realexp","ack",85.01985251,1,"2013_Dec_12_1052",NA
"318",2,"down",6,0,6,0,1,7,17,9,1,0.553067666,1,0,1.681754551,2,0.399315927,0.02875,0.444444444,0.02875,"metacognition_realexp","ack",85.01985251,1,"2013_Dec_12_1052",NA
"319",1,"left",6,0,6,0,1,8,18,2,2,1.600015323,2,0,0.623012325,2,0.37583844,0.02875,0.421052632,0.02875,"metacognition_realexp","ack",85.01985251,1,"2013_Dec_12_1052",NA
"320",1,"left",6,0,6,0,1,9,19,8,1,0.717736167,2,0,2.622946875,3,0.351671029,0.02875,0.4,0.02875,"metacognition_realexp","ack",85.01985251,1,"2013_Dec_12_1052",NA
"321",1,"left",6,0,6,0,2,0,20,8,1,0.317719535,2,0,0.634806894,3,0.352295889,0.02875,0.380952381,0.02875,"metacognition_realexp","ack",85.01985251,1,"2013_Dec_12_1052",NA
"322",1,"left",6,0,6,0,2,1,21,4,1,0.388334484,2,0,0.788036569,1,0.916619889,0.02875,0.363636364,0.02875,"metacognition_realexp","ack",85.01985251,1,"2013_Dec_12_1052",NA
"323",1,"left",6,0,6,0,2,2,22,6,1,0.705985103,2,0,1.811182568,1,0.434632257,0.02875,0.347826087,0.02875,"metacognition_realexp","ack",85.01985251,1,"2013_Dec_12_1052",NA
"324",2,"down",6,0,6,0,2,3,23,9,1,0.482484671,1,0,1.328082662,1,0.588275425,0.02875,0.333333333,0.02875,"metacognition_realexp","ack",85.01985251,1,"2013_Dec_12_1052",NA
"325",1,"left",6,0,6,0,2,4,24,2,1,0.529522034,2,0,0.575976117,1,0.422893129,0.02875,0.32,0.02875,"metacognition_realexp","ack",85.01985251,1,"2013_Dec_12_1052",NA
"326",2,"down",6,0,6,0,2,5,25,5,1,4.011617082,2,1,0.705408369,2,0.340471675,0.02875,0.346153846,0.02875,"metacognition_realexp","ack",85.01985251,1,"2013_Dec_12_1052",NA
"327",2,"down",6,0,6,0,2,6,26,7,1,0.306013902,2,1,0.31714819,2,0.293481282,0.02875,0.37037037,0.02875,"metacognition_realexp","ack",85.01985251,1,"2013_Dec_12_1052",NA
"328",2,"down",6,0,6,0,2,7,27,3,1,0.294272079,2,1,0.870026819,1,1.164010146,0.02875,0.392857143,0.02875,"metacognition_realexp","ack",85.01985251,1,"2013_Dec_12_1052",NA
"329",2,"down",6,0,6,0,2,8,28,1,1,0.258968454,2,1,0.764180625,1,0.352315139,0.02875,0.413793103,0.02875,"metacognition_realexp","ack",85.01985251,1,"2013_Dec_12_1052",NA
"330",1,"left",6,0,6,0,2,9,29,0,1,2.529349168,2,0,1.328903488,1,0.293412367,0.02875,0.4,0.02875,"metacognition_realexp","ack",85.01985251,1,"2013_Dec_12_1052",NA
"331",2,"down",6,0,6,0,3,0,30,1,1,0.35304626,2,1,0.717213718,1,0.316914108,0.02875,0.419354839,0.02875,"metacognition_realexp","ack",85.01985251,1,"2013_Dec_12_1052",NA
"332",1,"left",6,0,6,0,3,1,31,0,1,0.35308784,2,0,0.576093928,1,0.293319581,0.02875,0.40625,0.02875,"metacognition_realexp","ack",85.01985251,1,"2013_Dec_12_1052",NA
"333",1,"left",6,0,6,0,3,2,32,4,2,0.541244992,1,1,1.164263478,3,0.705136172,0.02875,0.424242424,0.02875,"metacognition_realexp","ack",85.01985251,1,"2013_Dec_12_1052",NA
"334",1,"left",6,0,6,0,3,3,33,8,1,0.35309323,1,1,0.834759,3,0.422169323,0.02875,0.441176471,0.02875,"metacognition_realexp","ack",85.01985251,1,"2013_Dec_12_1052",NA
"335",2,"down",6,0,6,0,3,4,34,3,1,2.329224966,1,0,0.823156163,3,1.340495545,0.02875,0.428571429,0.02875,"metacognition_realexp","ack",85.01985251,1,"2013_Dec_12_1052",NA
"336",2,"down",6,0,6,0,3,5,35,9,2,1.317695279,2,1,0.917124243,3,0.693447479,0.02875,0.444444444,0.02875,"metacognition_realexp","ack",85.01985251,1,"2013_Dec_12_1052",NA
"337",1,"left",6,0,6,0,3,6,36,2,1,1.905895629,2,0,0.623030421,1,0.352224663,0.02875,0.432432432,0.02875,"metacognition_realexp","ack",85.01985251,1,"2013_Dec_12_1052",NA
"338",1,"left",6,0,6,0,3,7,37,6,1,0.035542327,1,1,0.846390712,1,0.258189977,0.02875,0.447368421,0.02875,"metacognition_realexp","ack",85.01985251,1,"2013_Dec_12_1052",NA
"339",2,"down",6,0,6,0,3,8,38,7,2,0.306304579,1,0,0.657965213,3,0.964044565,0.02875,0.435897436,0.02875,"metacognition_realexp","ack",85.01985251,1,"2013_Dec_12_1052",NA
"340",2,"down",6,0,6,0,3,9,39,5,2,5.835011562,1,0,0.705370639,2,0.564097233,0.02875,0.425,0.02875,"metacognition_realexp","ack",85.01985251,1,"2013_Dec_12_1052",NA
"341",1,"left",6,0,6,0,4,0,40,4,2,7.658384866,1,1,2.834612313,3,0.387581804,0.02875,0.43902439,0.02875,"metacognition_realexp","ack",85.01985251,1,"2013_Dec_12_1052",NA
"342",1,"left",6,0,6,0,4,1,41,2,3,1.388312924,2,0,0.975918059,3,0.669911087,0.02875,0.428571429,0.02875,"metacognition_realexp","ack",85.01985251,1,"2013_Dec_12_1052",NA
"343",2,"down",6,0,6,0,4,2,42,3,1,0.470668542,2,1,0.79954277,1,0.552234904,0.02875,0.441860465,0.02875,"metacognition_realexp","ack",85.01985251,1,"2013_Dec_12_1052",NA
"344",2,"down",6,0,6,0,4,3,43,7,1,0.364856998,2,1,0.822973286,1,0.575848681,0.02875,0.454545455,0.02875,"metacognition_realexp","ack",85.01985251,1,"2013_Dec_12_1052",NA
"345",1,"left",6,0,6,0,4,4,44,0,1,0.282478665,2,0,0.776014079,2,1.128669175,0.02875,0.444444444,0.02875,"metacognition_realexp","ack",85.01985251,1,"2013_Dec_12_1052",NA
"346",2,"down",6,0,6,0,4,5,45,5,1,0.28250446,2,1,0.776158455,1,0.246313788,0.02875,0.456521739,0.02875,"metacognition_realexp","ack",85.01985251,1,"2013_Dec_12_1052",NA
"347",1,"left",6,0,6,0,4,6,46,8,1,0.270746082,1,1,0.399510738,1,0.234643191,0.02875,0.468085106,0.02875,"metacognition_realexp","ack",85.01985251,1,"2013_Dec_12_1052",NA
"348",2,"down",6,0,6,0,4,7,47,9,1,0.329553373,2,1,0.693634206,1,0.269930261,0.02875,0.479166667,0.02875,"metacognition_realexp","ack",85.01985251,1,"2013_Dec_12_1052",NA
"349",1,"left",6,0,6,0,4,8,48,6,1,0.4236512,1,1,0.470227714,1,0.352079902,0.02875,0.489795918,0.02875,"metacognition_realexp","ack",85.01985251,1,"2013_Dec_12_1052",NA
"350",2,"down",6,0,6,0,4,9,49,1,1,1.682412907,2,1,2.305248901,3,0.434910614,0.02875,0.5,0.02875,"metacognition_realexp","ack",85.01985251,1,"2013_Dec_12_1052",NA
"351",2,"down",7,0,7,0,0,0,0,9,2,1.729436024,2,1,0.621905827,2,0.823494195,0.02875,1,0.02875,"metacognition_realexp","ack",85.01985251,1,"2013_Dec_12_1052",NA
"352",1,"left",7,0,7,0,0,1,1,8,1,0.58830892,2,0,1.023036658,1,0.646362761,0.02875,0.5,0.02875,"metacognition_realexp","ack",85.01985251,1,"2013_Dec_12_1052",NA
"353",2,"down",7,0,7,0,0,2,2,5,1,0.364806563,2,1,0.576018853,1,0.364065432,0.02875,0.666666667,0.02875,"metacognition_realexp","ack",85.01985251,1,"2013_Dec_12_1052",NA
"354",1,"left",7,0,7,0,0,3,3,0,1,0.317760345,2,0,0.38775236,1,0.446428365,0.02875,0.5,0.02875,"metacognition_realexp","ack",85.01985251,1,"2013_Dec_12_1052",NA
"355",2,"down",7,0,7,0,0,4,4,7,1,0.341349097,2,1,0.375951631,1,0.316989954,0.02875,0.6,0.02875,"metacognition_realexp","ack",85.01985251,1,"2013_Dec_12_1052",NA
"356",1,"left",7,0,7,0,0,5,5,2,1,0.012107191,2,0,0.44635483,1,0.352317064,0.02875,0.5,0.02875,"metacognition_realexp","ack",85.01985251,1,"2013_Dec_12_1052",NA
"357",2,"down",7,0,7,0,0,6,6,1,1,0.28241822,2,1,0.270090422,1,0.317043084,0.02875,0.571428571,0.02875,"metacognition_realexp","ack",85.01985251,1,"2013_Dec_12_1052",NA
"358",2,"down",7,0,7,0,0,7,7,3,1,0.341277486,2,1,0.246545175,1,0.234678226,0.02875,0.625,0.02875,"metacognition_realexp","ack",85.01985251,1,"2013_Dec_12_1052",NA
"359",1,"left",7,0,7,0,0,8,8,4,1,0.317774205,1,1,0.76421181,1,0.716963466,0.02875,0.666666667,0.02875,"metacognition_realexp","ack",85.01985251,1,"2013_Dec_12_1052",NA
"360",1,"left",7,0,7,0,0,9,9,6,1,0.387959107,2,0,0.446574666,2,0.787660806,0.02875,0.6,0.02875,"metacognition_realexp","ack",85.01985251,1,"2013_Dec_12_1052",NA
"361",2,"down",7,0,7,0,1,0,10,1,1,0.411878961,2,1,0.670144014,1,0.54041146,0.02875,0.636363636,0.02875,"metacognition_realexp","ack",85.01985251,1,"2013_Dec_12_1052",NA
"362",1,"left",7,0,7,0,1,1,11,4,1,0.353069745,2,0,0.540815329,1,0.410957649,0.02875,0.583333333,0.02875,"metacognition_realexp","ack",85.01985251,1,"2013_Dec_12_1052",NA
"363",2,"down",7,0,7,0,1,2,12,9,1,80.95886897,2,1,0.764127495,1,0.270035366,0.02875,0.615384615,0.02875,"metacognition_realexp","ack",85.01985251,1,"2013_Dec_12_1052",NA
"364",1,"left",7,0,7,0,1,3,13,8,1,2.17660398,1,1,1.940477758,2,0.846541248,0.02875,0.642857143,0.02875,"metacognition_realexp","ack",85.01985251,1,"2013_Dec_12_1052",NA
"365",1,"left",7,0,7,0,1,4,14,0,1,4.764500947,1,1,1.128890167,1,0.258214233,0.02875,0.666666667,0.02875,"metacognition_realexp","ack",85.01985251,1,"2013_Dec_12_1052",NA
"366",2,"down",7,0,7,0,1,5,15,5,1,0.211873725,1,0,0.399506118,1,0.258204223,0.02875,0.625,0.02875,"metacognition_realexp","ack",85.01985251,1,"2013_Dec_12_1052",NA
"367",1,"left",7,0,7,0,1,6,16,6,1,0.400100178,2,0,57.18354289,3,7.48110944,0.02875,0.588235294,0.02875,"metacognition_realexp","ack",85.01985251,1,"2013_Dec_12_1052",NA
"368",1,"left",7,0,7,0,1,7,17,2,2,0.294231268,2,0,0.658336741,2,0.481701575,0.02875,0.555555556,0.02875,"metacognition_realexp","ack",85.01985251,1,"2013_Dec_12_1052",NA
"369",2,"down",7,0,7,0,1,8,18,7,1,4.740971486,2,1,0.552442806,3,0.422846928,0.02875,0.578947368,0.02875,"metacognition_realexp","ack",85.01985251,1,"2013_Dec_12_1052",NA
"370",2,"down",7,0,7,0,1,9,19,3,1,0.552822804,2,1,0.752359491,1,0.75226401,0.02875,0.6,0.02875,"metacognition_realexp","ack",85.01985251,1,"2013_Dec_12_1052",NA
"371",1,"left",7,0,7,0,2,0,20,6,2,1.482402665,2,0,0.470057928,1,0.764023929,0.02875,0.571428571,0.02875,"metacognition_realexp","ack",85.01985251,1,"2013_Dec_12_1052",NA
"372",2,"down",7,0,7,0,2,1,21,5,1,1.047152479,2,1,0.670068554,3,0.775780767,0.02875,0.590909091,0.02875,"metacognition_realexp","ack",85.01985251,1,"2013_Dec_12_1052",NA
"373",1,"left",7,0,7,0,2,2,22,0,2,5.764446662,2,0,0.846523538,3,0.799306379,0.02875,0.565217391,0.02875,"metacognition_realexp","ack",85.01985251,1,"2013_Dec_12_1052",NA
"374",2,"down",7,0,7,0,2,3,23,7,3,0.364833898,2,1,0.399519208,3,0.37580456,0.02875,0.583333333,0.02875,"metacognition_realexp","ack",85.01985251,1,"2013_Dec_12_1052",NA
"375",2,"down",7,0,7,0,2,4,24,1,2,0.682374791,2,1,0.576004608,3,0.48169888,0.02875,0.6,0.02875,"metacognition_realexp","ack",85.01985251,1,"2013_Dec_12_1052",NA
"376",2,"down",7,0,7,0,2,5,25,9,2,0.411865486,2,1,0.493677095,1,1.505029295,0.02875,0.615384615,0.02875,"metacognition_realexp","ack",85.01985251,1,"2013_Dec_12_1052",NA
"377",1,"left",7,0,7,0,2,6,26,8,2,0.482476971,2,0,0.752421862,3,0.575811721,0.02875,0.592592593,0.02875,"metacognition_realexp","ack",85.01985251,1,"2013_Dec_12_1052",NA
"378",1,"left",7,0,7,0,2,7,27,2,2,1.023623787,1,1,0.540731783,2,0.410996919,0.02875,0.607142857,0.02875,"metacognition_realexp","ack",85.01985251,1,"2013_Dec_12_1052",NA
"379",2,"down",7,0,7,0,2,8,28,3,1,0.293255671,2,1,2.682717444,1,1.705157347,0.02875,0.620689655,0.02875,"metacognition_realexp","ack",85.01985251,1,"2013_Dec_12_1052",NA
"380",1,"left",7,0,7,0,2,9,29,4,1,7.870128075,2,0,0.94067642,2,1.963920594,0.02875,0.6,0.02875,"metacognition_realexp","ack",85.01985251,1,"2013_Dec_12_1052",NA
"381",2,"down",7,0,7,0,3,0,30,9,1,0.364838133,2,1,0.517127631,1,0.399349037,0.02875,0.612903226,0.02875,"metacognition_realexp","ack",85.01985251,1,"2013_Dec_12_1052",NA
"382",2,"down",7,0,7,0,3,1,31,5,1,0.376590351,2,1,0.552452046,1,0.399590819,0.02875,0.625,0.02875,"metacognition_realexp","ack",85.01985251,1,"2013_Dec_12_1052",NA
"383",1,"left",7,0,7,0,3,2,32,2,1,0.329613434,2,0,0.411233696,1,0.340511715,0.02875,0.606060606,0.02875,"metacognition_realexp","ack",85.01985251,1,"2013_Dec_12_1052",NA
"384",2,"down",7,0,7,0,3,3,33,1,1,0.305966546,2,1,0.364230598,1,0.317012284,0.02875,0.617647059,0.02875,"metacognition_realexp","ack",85.01985251,1,"2013_Dec_12_1052",NA
"385",1,"left",7,0,7,0,3,4,34,8,1,0.329539513,2,0,0.305372102,1,0.258230403,0.02875,0.6,0.02875,"metacognition_realexp","ack",85.01985251,1,"2013_Dec_12_1052",NA
"386",2,"down",7,0,7,0,3,5,35,3,1,0.400126743,1,0,0.446304779,2,0.376039027,0.02875,0.583333333,0.02875,"metacognition_realexp","ack",85.01985251,1,"2013_Dec_12_1052",NA
"387",1,"left",7,0,7,0,3,6,36,4,1,0.42371049,2,0,0.31709429,1,0.387514813,0.02875,0.567567568,0.02875,"metacognition_realexp","ack",85.01985251,1,"2013_Dec_12_1052",NA
"388",1,"left",7,0,7,0,3,7,37,6,1,0.376586886,2,0,0.999492566,1,0.375761055,0.02875,0.552631579,0.02875,"metacognition_realexp","ack",85.01985251,1,"2013_Dec_12_1052",NA
"389",2,"down",7,0,7,0,3,8,38,7,1,0.353038175,2,1,0.328947379,1,0.305244666,0.02875,0.564102564,0.02875,"metacognition_realexp","ack",85.01985251,1,"2013_Dec_12_1052",NA
"390",1,"left",7,0,7,0,3,9,39,0,1,0.482454256,2,0,0.28184418,1,0.281731759,0.02875,0.55,0.02875,"metacognition_realexp","ack",85.01985251,1,"2013_Dec_12_1052",NA
"391",1,"left",7,0,7,0,4,0,40,6,1,0.423626944,2,0,0.576031558,3,1.210996303,0.02875,0.536585366,0.02875,"metacognition_realexp","ack",85.01985251,1,"2013_Dec_12_1052",NA
"392",2,"down",7,0,7,0,4,1,41,7,2,0.353066665,2,1,0.49369981,2,0.705140407,0.02875,0.547619048,0.02875,"metacognition_realexp","ack",85.01985251,1,"2013_Dec_12_1052",NA
"393",2,"down",7,0,7,0,4,2,42,3,3,0.388367595,1,0,0.775955558,1,0.998887726,0.02875,0.534883721,0.02875,"metacognition_realexp","ack",85.01985251,1,"2013_Dec_12_1052",NA
"394",2,"down",7,0,7,0,4,3,43,5,3,1.223569348,2,1,0.846590143,2,1.293345376,0.02875,0.545454545,0.02875,"metacognition_realexp","ack",85.01985251,1,"2013_Dec_12_1052",NA
"395",1,"left",7,0,7,0,4,4,44,0,3,0.400091323,2,0,0.505436628,3,0.622843694,0.02875,0.533333333,0.02875,"metacognition_realexp","ack",85.01985251,1,"2013_Dec_12_1052",NA
"396",2,"down",7,0,7,0,4,5,45,9,1,0.494467891,1,0,1.034498584,2,0.752080749,0.02875,0.52173913,0.02875,"metacognition_realexp","ack",85.01985251,1,"2013_Dec_12_1052",NA
"397",1,"left",7,0,7,0,4,6,46,4,2,0.305982716,2,0,0.787715862,1,0.622855244,0.02875,0.510638298,0.02875,"metacognition_realexp","ack",85.01985251,1,"2013_Dec_12_1052",NA
"398",2,"down",7,0,7,0,4,7,47,1,2,1.869826233,2,1,1.364805023,1,0.340556376,0.02875,0.520833333,0.02875,"metacognition_realexp","ack",85.01985251,1,"2013_Dec_12_1052",NA
"399",1,"left",7,0,7,0,4,8,48,8,2,0.31778075,1,1,0.599509429,2,0.528725848,0.02875,0.530612245,0.02875,"metacognition_realexp","ack",85.01985251,1,"2013_Dec_12_1052",NA
"400",1,"left",7,0,7,0,4,9,49,2,1,0.306037387,2,0,0.728859675,2,0.352380974,0.02875,0.52,0.02875,"metacognition_realexp","ack",85.01985251,1,"2013_Dec_12_1052",NA
"401",2,"down",8,0,8,0,0,0,0,7,1,6.25849182,1,0,2.834440217,1,0.211085239,0.02875,0,0.02875,"metacognition_realexp","ack",85.01985251,1,"2013_Dec_12_1052",NA
"402",2,"down",8,0,8,0,0,1,1,9,2,0.305966161,2,1,0.470111828,3,1.834643114,0.02875,0.5,0.02875,"metacognition_realexp","ack",85.01985251,1,"2013_Dec_12_1052",NA
"403",2,"down",8,0,8,0,0,2,2,1,2,0.741247918,2,1,0.552474761,3,0.293484362,0.02875,0.666666667,0.02875,"metacognition_realexp","ack",85.01985251,1,"2013_Dec_12_1052",NA
"404",1,"left",8,0,8,0,0,3,3,4,1,0.3177538,2,0,1.599432814,3,0.399353272,0.02875,0.5,0.02875,"metacognition_realexp","ack",85.01985251,1,"2013_Dec_12_1052",NA
"405",2,"down",8,0,8,0,0,4,4,5,1,0.317794225,1,0,0.670112829,2,0.611057596,0.02875,0.4,0.02875,"metacognition_realexp","ack",85.01985251,1,"2013_Dec_12_1052",NA
"406",1,"left",8,0,8,0,0,5,5,0,1,0.505967932,2,0,1.62297113,3,1.446333269,0.02875,0.333333333,0.02875,"metacognition_realexp","ack",85.01985251,1,"2013_Dec_12_1052",NA
"407",1,"left",8,0,8,0,0,6,6,2,1,0.376592661,2,0,0.787755517,3,0.528714683,0.02875,0.285714286,0.02875,"metacognition_realexp","ack",85.01985251,1,"2013_Dec_12_1052",NA
"408",2,"down",8,0,8,0,0,7,7,3,2,19.46929023,2,1,0.611268577,2,0.646387786,0.02875,0.375,0.02875,"metacognition_realexp","ack",85.01985251,1,"2013_Dec_12_1052",NA
"409",1,"left",8,0,8,0,0,8,8,8,1,0.317804235,2,0,2.234650891,3,0.469920096,0.02875,0.333333333,0.02875,"metacognition_realexp","ack",85.01985251,1,"2013_Dec_12_1052",NA
"410",1,"left",8,0,8,0,0,9,9,6,1,0.62362294,1,1,0.52894607,2,0.422908529,0.02875,0.4,0.02875,"metacognition_realexp","ack",85.01985251,1,"2013_Dec_12_1052",NA
"411",1,"left",8,0,8,0,1,0,10,4,1,0.329566463,1,1,0.505387733,1,0.599296907,0.02875,0.454545455,0.02875,"metacognition_realexp","ack",85.01985251,1,"2013_Dec_12_1052",NA
"412",1,"left",8,0,8,0,1,1,11,6,1,0.517781366,2,0,1.223011478,1,0.728718764,0.02875,0.416666667,0.02875,"metacognition_realexp","ack",85.01985251,1,"2013_Dec_12_1052",NA
"413",2,"down",8,0,8,0,1,2,12,9,2,1.800012474,2,1,0.434810513,2,0.552290345,0.02875,0.461538462,0.02875,"metacognition_realexp","ack",85.01985251,1,"2013_Dec_12_1052",NA
"414",1,"left",8,0,8,0,1,3,13,0,2,1.011846159,1,1,0.811268038,2,0.599323088,0.02875,0.5,0.02875,"metacognition_realexp","ack",85.01985251,1,"2013_Dec_12_1052",NA
"415",2,"down",8,0,8,0,1,4,14,5,3,0.376922224,2,1,2.199006153,1,1.281608943,0.02875,0.533333333,0.02875,"metacognition_realexp","ack",85.01985251,1,"2013_Dec_12_1052",NA
"416",1,"left",8,0,8,0,1,5,15,8,2,0.741223663,2,0,0.539833571,2,0.541486774,0.02875,0.5,0.02875,"metacognition_realexp","ack",85.01985251,1,"2013_Dec_12_1052",NA
"417",2,"down",8,0,8,0,1,6,16,7,1,0.259100895,1,0,0.493461493,3,0.458164028,0.02875,0.470588235,0.02875,"metacognition_realexp","ack",85.01985251,1,"2013_Dec_12_1052",NA
"418",2,"down",8,0,8,0,1,7,17,1,1,0.800092555,2,1,0.775974038,1,0.317088515,0.02875,0.5,0.02875,"metacognition_realexp","ack",85.01985251,1,"2013_Dec_12_1052",NA
"419",2,"down",8,0,8,0,1,8,18,3,1,0.952884481,2,1,0.517305502,1,0.281732529,0.02875,0.526315789,0.02875,"metacognition_realexp","ack",85.01985251,1,"2013_Dec_12_1052",NA
"420",1,"left",8,0,8,0,1,9,19,2,2,0.294314814,2,0,0.634745679,1,0.516962465,0.02875,0.5,0.02875,"metacognition_realexp","ack",85.01985251,1,"2013_Dec_12_1052",NA
"421",2,"down",8,0,8,0,2,0,20,3,2,0.494206859,2,1,0.42304328,1,0.422913919,0.02875,0.523809524,0.02875,"metacognition_realexp","ack",85.01985251,1,"2013_Dec_12_1052",NA
"422",1,"left",8,0,8,0,2,1,21,0,2,0.376555701,1,1,1.17597296,3,0.493483053,0.02875,0.545454545,0.02875,"metacognition_realexp","ack",85.01985251,1,"2013_Dec_12_1052",NA
"423",1,"left",8,0,8,0,2,2,22,8,2,0.294211248,2,0,0.481905242,3,0.44636869,0.02875,0.52173913,0.02875,"metacognition_realexp","ack",85.01985251,1,"2013_Dec_12_1052",NA
"424",1,"left",8,0,8,0,2,3,23,6,2,0.259127075,2,0,0.422883118,3,0.387594894,0.02875,0.5,0.02875,"metacognition_realexp","ack",85.01985251,1,"2013_Dec_12_1052",NA
"425",2,"down",8,0,8,0,2,4,24,9,1,0.305975401,1,0,0.470162648,3,0.37576837,0.02875,0.48,0.02875,"metacognition_realexp","ack",85.01985251,1,"2013_Dec_12_1052",NA
"426",1,"left",8,0,8,0,2,5,25,4,1,1.788222911,2,0,0.410705857,2,0.2938659,0.02875,0.461538462,0.02875,"metacognition_realexp","ack",85.01985251,1,"2013_Dec_12_1052",NA
"427",1,"left",8,0,8,0,2,6,26,2,1,0.88151223,2,0,0.388652497,2,0.387571408,0.02875,0.444444444,0.02875,"metacognition_realexp","ack",85.01985251,1,"2013_Dec_12_1052",NA
"428",2,"down",8,0,8,0,2,7,27,7,1,0.482448096,2,1,0.528929514,3,0.669921097,0.02875,0.464285714,0.02875,"metacognition_realexp","ack",85.01985251,1,"2013_Dec_12_1052",NA
"429",2,"down",8,0,8,0,2,8,28,5,2,0.517754416,2,1,0.528921429,2,0.44640257,0.02875,0.482758621,0.02875,"metacognition_realexp","ack",85.01985251,1,"2013_Dec_12_1052",NA
"430",2,"down",8,0,8,0,2,9,29,1,1,0.294254753,2,1,1.1053326,3,0.399409867,0.02875,0.5,0.02875,"metacognition_realexp","ack",85.01985251,1,"2013_Dec_12_1052",NA
"431",2,"down",8,0,8,0,3,0,30,9,2,0.35305165,2,1,0.352470295,2,0.716992726,0.02875,0.516129032,0.02875,"metacognition_realexp","ack",85.01985251,1,"2013_Dec_12_1052",NA
"432",1,"left",8,0,8,0,3,1,31,2,2,0.353062815,1,1,2.364226363,3,0.375684824,0.02875,0.53125,0.02875,"metacognition_realexp","ack",85.01985251,1,"2013_Dec_12_1052",NA
"433",2,"down",8,0,8,0,3,2,32,3,1,0.541305053,2,1,0.469161255,1,0.376735498,0.02875,0.545454545,0.02875,"metacognition_realexp","ack",85.01985251,1,"2013_Dec_12_1052",NA
"434",2,"down",8,0,8,0,3,3,33,5,2,0.564809489,1,0,0.987743428,3,0.399414487,0.02875,0.529411765,0.02875,"metacognition_realexp","ack",85.01985251,1,"2013_Dec_12_1052",NA
"435",1,"left",8,0,8,0,3,4,34,4,1,0.364851608,1,1,1.0700232,3,0.364017692,0.02875,0.542857143,0.02875,"metacognition_realexp","ack",85.01985251,1,"2013_Dec_12_1052",NA
"436",1,"left",8,0,8,0,3,5,35,0,2,0.647213617,2,0,2.611075691,2,3.411012319,0.02875,0.527777778,0.02875,"metacognition_realexp","ack",85.01985251,1,"2013_Dec_12_1052",NA
"437",2,"down",8,0,8,0,3,6,36,7,3,1.988238157,2,1,0.740663098,1,0.658187359,0.02875,0.540540541,0.02875,"metacognition_realexp","ack",85.01985251,1,"2013_Dec_12_1052",NA
"438",1,"left",8,0,8,0,3,7,37,8,1,0.447221471,2,0,1.011221299,2,0.434599531,0.02875,0.526315789,0.02875,"metacognition_realexp","ack",85.01985251,1,"2013_Dec_12_1052",NA
"439",2,"down",8,0,8,0,3,8,38,1,1,193.4796949,1,0,41.38469659,1,0.799208203,0.02875,0.512820513,0.02875,"metacognition_realexp","ack",85.01985251,1,"2013_Dec_12_1052",NA
"440",1,"left",8,0,8,0,3,9,39,6,3,0.329500243,1,1,2.89346927,3,0.246384629,0.02875,0.525,0.02875,"metacognition_realexp","ack",85.01985251,1,"2013_Dec_12_1052",NA
"441",1,"left",8,0,8,0,4,0,40,6,3,0.305982331,2,0,0.623059296,3,0.258427139,0.02875,0.512195122,0.02875,"metacognition_realexp","ack",85.01985251,1,"2013_Dec_12_1052",NA
"442",1,"left",8,0,8,0,4,1,41,4,1,0.294234733,1,1,5.210927773,2,0.564379441,0.02875,0.523809524,0.02875,"metacognition_realexp","ack",85.01985251,1,"2013_Dec_12_1052",NA
"443",1,"left",8,0,8,0,4,2,42,8,2,0.047210614,2,0,0.881846028,3,0.552230669,0.02875,0.511627907,0.02875,"metacognition_realexp","ack",85.01985251,1,"2013_Dec_12_1052",NA
"444",2,"down",8,0,8,0,4,3,43,1,1,0.76480433,2,1,3.34050132,2,1.117049398,0.02875,0.522727273,0.02875,"metacognition_realexp","ack",85.01985251,1,"2013_Dec_12_1052",NA
"445",2,"down",8,0,8,0,4,4,44,9,2,0.153009838,2,1,6.23452307,2,1.175595657,0.02875,0.533333333,0.02875,"metacognition_realexp","ack",85.01985251,1,"2013_Dec_12_1052",NA
"446",2,"down",8,0,8,0,4,5,45,3,1,0.411922467,1,0,3.199294905,1,0.422950109,0.02875,0.52173913,0.02875,"metacognition_realexp","ack",85.01985251,1,"2013_Dec_12_1052",NA
"447",1,"left",8,0,8,0,4,6,46,2,2,0.353089765,2,0,1.340597571,2,0.846367997,0.02875,0.510638298,0.02875,"metacognition_realexp","ack",85.01985251,1,"2013_Dec_12_1052",NA
"448",2,"down",8,0,8,0,4,7,47,7,2,1.564715548,2,1,0.858307326,2,0.293458182,0.02875,0.520833333,0.02875,"metacognition_realexp","ack",85.01985251,1,"2013_Dec_12_1052",NA
"449",2,"down",8,0,8,0,4,8,48,5,2,1.494203394,1,0,0.481831706,3,0.564033708,0.02875,0.510204082,0.02875,"metacognition_realexp","ack",85.01985251,1,"2013_Dec_12_1052",NA
"450",1,"left",8,0,8,0,4,9,49,0,2,1.277316159,2,0,0.651580322,3,0.434655357,0.02875,0.5,0.02875,"metacognition_realexp","ack",85.01985251,1,"2013_Dec_12_1052",NA
"451",1,"left",9,0,9,0,0,0,0,2,2,1.400014707,1,1,0.458130918,2,0.657909772,0.02875,1,0.02875,"metacognition_realexp","ack",85.01985251,1,"2013_Dec_12_1052",NA
"452",1,"left",9,0,9,0,0,1,1,0,2,5.705635136,2,0,1.481822081,3,0.493431078,0.02875,0.5,0.02875,"metacognition_realexp","ack",85.01985251,1,"2013_Dec_12_1052",NA
"453",1,"left",9,0,9,0,0,2,2,8,2,1.17655855,2,0,0.423002084,3,0.528763578,0.02875,0.333333333,0.02875,"metacognition_realexp","ack",85.01985251,1,"2013_Dec_12_1052",NA
"454",2,"down",9,0,9,0,0,3,3,5,2,12.97560621,1,0,0.328920428,3,0.222960658,0.02875,0.25,0.02875,"metacognition_realexp","ack",85.01985251,1,"2013_Dec_12_1052",NA
"455",2,"down",9,0,9,0,0,4,4,9,3,0.447000865,1,0,0.776078374,3,1.363974571,0.02875,0.2,0.02875,"metacognition_realexp","ack",85.01985251,1,"2013_Dec_12_1052",NA
"456",2,"down",9,0,9,0,0,5,5,7,3,0.435403418,2,1,2.258227708,2,0.599329248,0.02875,0.333333333,0.02875,"metacognition_realexp","ack",85.01985251,1,"2013_Dec_12_1052",NA
"457",2,"down",9,0,9,0,0,6,6,1,1,0.294186608,2,1,0.599508659,3,0.505213711,0.02875,0.428571429,0.02875,"metacognition_realexp","ack",85.01985251,1,"2013_Dec_12_1052",NA
"458",1,"left",9,0,9,0,0,7,7,6,2,2.000011935,1,1,0.79946346,2,0.399353272,0.02875,0.5,0.02875,"metacognition_realexp","ack",85.01985251,1,"2013_Dec_12_1052",NA
"459",2,"down",9,0,9,0,0,8,8,3,2,2.105870065,2,1,0.564230444,3,0.34050671,0.02875,0.555555556,0.02875,"metacognition_realexp","ack",85.01985251,1,"2013_Dec_12_1052",NA
"460",1,"left",9,0,9,0,0,9,9,4,3,0.3177846,2,0,0.587840757,1,0.516823478,0.02875,0.5,0.02875,"metacognition_realexp","ack",85.01985251,1,"2013_Dec_12_1052",NA
"461",2,"down",9,0,9,0,1,0,10,3,3,0.364823503,2,1,0.446599307,2,0.646402801,0.02875,0.545454545,0.02875,"metacognition_realexp","ack",85.01985251,1,"2013_Dec_12_1052",NA
"462",2,"down",9,0,9,0,1,1,11,1,3,0.435400338,2,1,0.411282591,2,0.564053343,0.02875,0.583333333,0.02875,"metacognition_realexp","ack",85.01985251,1,"2013_Dec_12_1052",NA
"463",1,"left",9,0,9,0,1,2,12,8,2,0.776560783,2,0,0.446602002,3,1.034700325,0.02875,0.538461538,0.02875,"metacognition_realexp","ack",85.01985251,1,"2013_Dec_12_1052",NA
"464",2,"down",9,0,9,0,1,3,13,7,2,1.282352384,1,0,0.481924107,2,0.434666137,0.02875,0.5,0.02875,"metacognition_realexp","ack",85.01985251,1,"2013_Dec_12_1052",NA
"465",1,"left",9,0,9,0,1,4,14,0,1,0.294265149,2,0,0.575848296,2,0.623083551,0.02875,0.466666667,0.02875,"metacognition_realexp","ack",85.01985251,1,"2013_Dec_12_1052",NA
"466",1,"left",9,0,9,0,1,5,15,2,2,1.058923562,2,0,0.458316489,3,0.387601439,0.02875,0.4375,0.02875,"metacognition_realexp","ack",85.01985251,1,"2013_Dec_12_1052",NA
"467",1,"left",9,0,9,0,1,6,16,6,1,0.494249979,2,0,0.576008458,3,0.37578531,0.02875,0.411764706,0.02875,"metacognition_realexp","ack",85.01985251,1,"2013_Dec_12_1052",NA
"468",1,"left",9,0,9,0,1,7,17,4,1,0.458940579,1,1,0.481863661,2,0.446416045,0.02875,0.444444444,0.02875,"metacognition_realexp","ack",85.01985251,1,"2013_Dec_12_1052",NA
"469",2,"down",9,0,9,0,1,8,18,9,2,1.635286993,2,1,0.42306715,3,0.352277024,0.02875,0.473684211,0.02875,"metacognition_realexp","ack",85.01985251,1,"2013_Dec_12_1052",NA
"470",2,"down",9,0,9,0,1,9,19,5,2,0.870686715,1,0,0.61033687,2,0.365325547,0.02875,0.45,0.02875,"metacognition_realexp","ack",85.01985251,1,"2013_Dec_12_1052",NA
"471",2,"down",9,0,9,0,2,0,20,9,2,2.352913049,1,0,0.764192175,3,0.646231475,0.02875,0.428571429,0.02875,"metacognition_realexp","ack",85.01985251,1,"2013_Dec_12_1052",NA
"472",2,"down",9,0,9,0,2,1,21,1,2,0.741272943,1,0,0.446632032,3,0.410976514,0.02875,0.409090909,0.02875,"metacognition_realexp","ack",85.01985251,1,"2013_Dec_12_1052",NA
"473",1,"left",9,0,9,0,2,2,22,0,2,1.058907777,2,0,0.45835884,2,0.752252845,0.02875,0.391304348,0.02875,"metacognition_realexp","ack",85.01985251,1,"2013_Dec_12_1052",NA
"474",2,"down",9,0,9,0,2,3,23,3,1,0.329532583,2,1,0.376026707,1,0.222825137,0.02875,0.416666667,0.02875,"metacognition_realexp","ack",85.01985251,1,"2013_Dec_12_1052",NA
"475",2,"down",9,0,9,0,2,4,24,5,1,5.352658947,2,1,1.305360167,1,0.305233116,0.02875,0.44,0.02875,"metacognition_realexp","ack",85.01985251,1,"2013_Dec_12_1052",NA
"476",2,"down",9,0,9,0,2,5,25,7,2,0.329561073,1,0,0.423008629,2,0.293453562,0.02875,0.423076923,0.02875,"metacognition_realexp","ack",85.01985251,1,"2013_Dec_12_1052",NA
"477",1,"left",9,0,9,0,2,6,26,8,1,1.494164894,2,0,0.446577746,1,0.305197695,0.02875,0.407407407,0.02875,"metacognition_realexp","ack",85.01985251,1,"2013_Dec_12_1052",NA
"478",1,"left",9,0,9,0,2,7,27,4,2,0.305975401,2,0,0.470099508,3,0.399322857,0.02875,0.392857143,0.02875,"metacognition_realexp","ack",85.01985251,1,"2013_Dec_12_1052",NA
"479",1,"left",9,0,9,0,2,8,28,6,2,0.376167618,2,0,0.399932316,3,0.34053289,0.02875,0.379310345,0.02875,"metacognition_realexp","ack",85.01985251,1,"2013_Dec_12_1052",NA
"480",1,"left",9,0,9,0,2,9,29,2,2,0.69418399,2,0,0.446593916,3,0.434179493,0.02875,0.366666667,0.02875,"metacognition_realexp","ack",85.01985251,1,"2013_Dec_12_1052",NA
"481",1,"left",9,0,9,0,3,0,30,0,1,0.317805005,2,0,1.870016039,1,1.034449303,0.02875,0.35483871,0.02875,"metacognition_realexp","ack",85.01985251,1,"2013_Dec_12_1052",NA
"482",1,"left",9,0,9,0,3,1,31,4,1,2.30579676,1,1,0.458313409,1,0.411105875,0.02875,0.375,0.02875,"metacognition_realexp","ack",85.01985251,1,"2013_Dec_12_1052",NA
"483",1,"left",9,0,9,0,3,2,32,8,2,0.317731855,2,0,0.505423153,3,0.41110626,0.02875,0.363636364,0.02875,"metacognition_realexp","ack",85.01985251,1,"2013_Dec_12_1052",NA
"484",1,"left",9,0,9,0,3,3,33,6,3,0.341276331,2,0,0.293637594,1,0.822898596,0.02875,0.352941176,0.02875,"metacognition_realexp","ack",85.01985251,1,"2013_Dec_12_1052",NA
"485",2,"down",9,0,9,0,3,4,34,9,2,0.270701037,1,0,0.481907167,2,0.340975259,0.02875,0.342857143,0.02875,"metacognition_realexp","ack",85.01985251,1,"2013_Dec_12_1052",NA
"486",2,"down",9,0,9,0,3,5,35,3,2,0.317755725,1,0,0.411370757,2,0.269779339,0.02875,0.333333333,0.02875,"metacognition_realexp","ack",85.01985251,1,"2013_Dec_12_1052",NA
"487",1,"left",9,0,9,0,3,6,36,2,2,1.788244856,2,0,0.552444346,3,0.387591044,0.02875,0.324324324,0.02875,"metacognition_realexp","ack",85.01985251,1,"2013_Dec_12_1052",NA
"488",2,"down",9,0,9,0,3,7,37,5,2,0.353075905,2,1,0.364198643,3,0.352300509,0.02875,0.342105263,0.02875,"metacognition_realexp","ack",85.01985251,1,"2013_Dec_12_1052",NA
"489",2,"down",9,0,9,0,3,8,38,7,2,0.364820423,2,1,0.211277355,3,0.234682846,0.02875,0.358974359,0.02875,"metacognition_realexp","ack",85.01985251,1,"2013_Dec_12_1052",NA
"490",2,"down",9,0,9,0,3,9,39,1,2,0.388320624,2,1,0.164219202,3,0.246466249,0.02875,0.375,0.02875,"metacognition_realexp","ack",85.01985251,1,"2013_Dec_12_1052",NA
"491",2,"down",9,0,9,0,4,0,40,5,1,0.305958076,2,1,0.199548622,2,1.328633216,0.02875,0.390243902,0.02875,"metacognition_realexp","ack",85.01985251,1,"2013_Dec_12_1052",NA
"492",2,"down",9,0,9,0,4,1,41,7,3,0.376595741,2,1,0.587710626,3,0.316355854,0.02875,0.404761905,0.02875,"metacognition_realexp","ack",85.01985251,1,"2013_Dec_12_1052",NA
"493",1,"left",9,0,9,0,4,2,42,2,2,0.282498685,2,0,0.234918853,3,0.399221601,0.02875,0.395348837,0.02875,"metacognition_realexp","ack",85.01985251,1,"2013_Dec_12_1052",NA
"494",1,"left",9,0,9,0,4,3,43,8,2,0.553285578,2,0,0.246315713,3,0.269895995,0.02875,0.386363636,0.02875,"metacognition_realexp","ack",85.01985251,1,"2013_Dec_12_1052",NA
"495",2,"down",9,0,9,0,4,4,44,3,1,0.364827738,2,1,0.258346289,3,0.269951821,0.02875,0.4,0.02875,"metacognition_realexp","ack",85.01985251,1,"2013_Dec_12_1052",NA
"496",1,"left",9,0,9,0,4,5,45,4,2,0.341314447,2,0,2.469953977,3,0.692457251,0.02875,0.391304348,0.02875,"metacognition_realexp","ack",85.01985251,1,"2013_Dec_12_1052",NA
"497",2,"down",9,0,9,0,4,6,46,1,2,0.317786525,1,0,0.28186112,3,0.199374216,0.02875,0.382978723,0.02875,"metacognition_realexp","ack",85.01985251,1,"2013_Dec_12_1052",NA
"498",1,"left",9,0,9,0,4,7,47,6,2,2.646978766,2,0,1.011239394,2,0.258184587,0.02875,0.375,0.02875,"metacognition_realexp","ack",85.01985251,1,"2013_Dec_12_1052",NA
"499",2,"down",9,0,9,0,4,8,48,9,2,0.341313677,1,0,0.846525848,3,0.387601054,0.02875,0.367346939,0.02875,"metacognition_realexp","ack",85.01985251,1,"2013_Dec_12_1052",NA
"500",1,"left",9,0,9,0,4,9,49,0,2,0.28245826,2,0,0.234831457,3,0.32913141,0.02875,0.36,0.02875,"metacognition_realexp","ack",85.01985251,1,"2013_Dec_12_1052",NA
"501",2,"down",0,0,0,0,0,0,0,9,1,0.753073224933,1,0,1.71686597856,1,1.69331661888,0.325,0,0.325,"metacognition_realexp","cc",85.0008181486,1,"2013_Dec_05_0952",NA
"502",2,"down",0,0,0,0,0,1,1,5,2,0.506025557558,2,1,0.493597905252,3,0.846397851967,0.325,0.5,0.325,"metacognition_realexp","cc",85.0008181486,1,"2013_Dec_05_0952",NA
"503",1,"left",0,0,0,0,0,2,2,4,2,1.5412202346,1,1,0.705391219445,3,0.869865590083,0.325,0.666666666667,0.325,"metacognition_realexp","cc",85.0008181486,1,"2013_Dec_05_0952",NA
"504",2,"down",0,0,0,0,0,3,3,3,2,0.329541652598,2,1,1.37596622408,2,0.411133180588,0.325,0.75,0.325,"metacognition_realexp","cc",85.0008181486,1,"2013_Dec_05_0952",NA
"505",2,"down",0,0,0,0,0,4,4,7,1,0.482454637471,2,1,0.928936498043,2,2.12857782519,0.325,0.8,0.325,"metacognition_realexp","cc",85.0008181486,1,"2013_Dec_05_0952",NA
"506",2,"down",0,0,0,0,0,5,5,1,1,0.835540259641,2,1,0.517032532736,1,0.434629794256,0.325,0.833333333333,0.325,"metacognition_realexp","cc",85.0008181486,1,"2013_Dec_05_0952",NA
"507",1,"left",0,0,0,0,0,6,6,8,2,0.258916674014,1,1,0.999460219693,3,1.48166229234,0.325,0.857142857143,0.325,"metacognition_realexp","cc",85.0008181486,1,"2013_Dec_05_0952",NA
"508",1,"left",0,0,0,0,0,7,7,0,3,0.447166403642,1,1,0.587718727489,3,1.17578627164,0.325,0.875,0.325,"metacognition_realexp","cc",85.0008181486,1,"2013_Dec_05_0952",NA
"509",1,"left",0,0,0,0,0,8,8,6,2,3.25874919582,1,1,0.658305590345,2,0.952274873689,0.325,0.888888888889,0.325,"metacognition_realexp","cc",85.0008181486,1,"2013_Dec_05_0952",NA
"510",1,"left",0,0,0,0,0,9,9,2,1,0.270711759241,2,0,0.658366806515,2,0.634221840466,0.325,0.8,0.325,"metacognition_realexp","cc",85.0008181486,1,"2013_Dec_05_0952",NA
"511",1,"left",0,0,0,0,1,0,10,6,3,0.435605402885,1,1,0.646418103353,3,0.516953991236,0.325,0.818181818182,0.325,"metacognition_realexp","cc",85.0008181486,1,"2013_Dec_05_0952",NA
"512",2,"down",0,0,0,0,1,1,11,5,2,0.470688812803,2,1,0.552414323352,2,0.764068264883,0.325,0.833333333333,0.325,"metacognition_realexp","cc",85.0008181486,1,"2013_Dec_05_0952",NA
"513",2,"down",0,0,0,0,1,2,12,3,3,0.776562908468,2,1,0.623065097428,3,0.599464146768,0.325,0.846153846154,0.325,"metacognition_realexp","cc",85.0008181486,1,"2013_Dec_05_0952",NA
"514",2,"down",0,0,0,0,1,3,13,9,2,3.37633275107,2,1,0.599511887679,3,1.35221666058,0.325,0.857142857143,0.325,"metacognition_realexp","cc",85.0008181486,1,"2013_Dec_05_0952",NA
"515",1,"left",0,0,0,0,1,4,14,8,3,0.506064828308,1,1,0.587683306813,3,0.481718888422,0.325,0.866666666667,0.325,"metacognition_realexp","cc",85.0008181486,1,"2013_Dec_05_0952",NA
"516",2,"down",0,0,0,0,1,5,15,1,3,0.541294926027,2,1,0.834768704908,3,0.434642499498,0.325,0.875,0.325,"metacognition_realexp","cc",85.0008181486,1,"2013_Dec_05_0952",NA
"517",2,"down",0,0,0,0,1,6,16,7,2,0.270748719947,2,1,2.54058458746,2,0.328688476307,0.325,0.882352941176,0.325,"metacognition_realexp","cc",85.0008181486,1,"2013_Dec_05_0952",NA
"518",1,"left",0,0,0,0,1,7,17,0,2,0.294256498828,1,1,0.493668746605,3,0.493436972179,0.325,0.888888888889,0.325,"metacognition_realexp","cc",85.0008181486,1,"2013_Dec_05_0952",NA
"519",1,"left",0,0,0,0,1,8,18,4,2,0.294259963894,1,1,0.917147572933,2,0.482037674509,0.325,0.894736842105,0.325,"metacognition_realexp","cc",85.0008181486,1,"2013_Dec_05_0952",NA
"520",1,"left",0,0,0,0,1,9,19,2,2,0.741305475228,2,0,0.552447818991,2,0.975765327239,0.325,0.85,0.325,"metacognition_realexp","cc",85.0008181486,1,"2013_Dec_05_0952",NA
"521",1,"left",0,0,0,0,2,0,20,8,2,0.870682960691,1,1,0.434824607976,2,0.905199639787,0.325,0.857142857143,0.325,"metacognition_realexp","cc",85.0008181486,1,"2013_Dec_05_0952",NA
"522",2,"down",0,0,0,0,2,1,21,7,1,0.235399269949,1,0,0.516550888539,1,0.55293793335,0.325,0.818181818182,0.325,"metacognition_realexp","cc",85.0008181486,1,"2013_Dec_05_0952",NA
"523",2,"down",0,0,0,0,2,2,22,9,3,0.564818105202,2,1,0.528914629625,3,0.681668606462,0.325,0.826086956522,0.325,"metacognition_realexp","cc",85.0008181486,1,"2013_Dec_05_0952",NA
"524",1,"left",0,0,0,0,2,3,23,4,2,2.17644193916,1,1,0.587979377466,2,1.12845077277,0.325,0.833333333333,0.325,"metacognition_realexp","cc",85.0008181486,1,"2013_Dec_05_0952",NA
"525",2,"down",0,0,0,0,2,4,24,5,2,0.200152231907,2,1,0.658359106367,2,0.599322464062,0.325,0.84,0.325,"metacognition_realexp","cc",85.0008181486,1,"2013_Dec_05_0952",NA
"526",1,"left",0,0,0,0,2,5,25,2,3,0.106019474442,1,1,0.564278709902,3,0.363978250165,0.325,0.846153846154,0.325,"metacognition_realexp","cc",85.0008181486,1,"2013_Dec_05_0952",NA
"527",1,"left",0,0,0,0,2,6,26,0,3,0.329529332363,1,1,0.458360877401,3,0.411067729338,0.325,0.851851851852,0.325,"metacognition_realexp","cc",85.0008181486,1,"2013_Dec_05_0952",NA
"528",2,"down",0,0,0,0,2,7,27,1,3,0.883358942739,2,1,0.9995129657,3,0.752355956237,0.325,0.857142857143,0.325,"metacognition_realexp","cc",85.0008181486,1,"2013_Dec_05_0952",NA
"529",1,"left",0,0,0,0,2,8,28,6,3,0.435423294408,1,1,0.823019050549,3,0.469934583401,0.325,0.862068965517,0.325,"metacognition_realexp","cc",85.0008181486,1,"2013_Dec_05_0952",NA
"530",2,"down",0,0,0,0,2,9,29,3,2,0.294305394762,2,1,0.940646496645,2,0.528710960736,0.325,0.866666666667,0.325,"metacognition_realexp","cc",85.0008181486,1,"2013_Dec_05_0952",NA
"531",2,"down",0,0,0,0,3,0,30,3,2,0.800170019246,1,0,0.540630403338,2,0.693456761557,0.325,0.838709677419,0.325,"metacognition_realexp","cc",85.0008181486,1,"2013_Dec_05_0952",NA
"532",1,"left",0,0,0,0,3,1,31,0,2,0.0237133728069,1,1,3.44632708762,1,0.352268251562,0.325,0.84375,0.325,"metacognition_realexp","cc",85.0008181486,1,"2013_Dec_05_0952",NA
"533",2,"down",0,0,0,0,3,2,32,1,1,1.27067710858,2,1,0.799483551139,2,1.9404401327,0.325,0.848484848485,0.325,"metacognition_realexp","cc",85.0008181486,1,"2013_Dec_05_0952",NA
"534",1,"left",0,0,0,0,3,3,33,2,3,0.317721156885,1,1,0.811269396189,3,0.411086979705,0.325,0.852941176471,0.325,"metacognition_realexp","cc",85.0008181486,1,"2013_Dec_05_0952",NA
"535",1,"left",0,0,0,0,3,4,34,4,3,0.964808018009,2,0,0.670070644999,3,0.458140653196,0.325,0.828571428571,0.325,"metacognition_realexp","cc",85.0008181486,1,"2013_Dec_05_0952",NA
"536",2,"down",0,0,0,0,3,5,35,9,3,0.306010003261,2,1,0.705369274026,3,0.552150593316,0.325,0.833333333333,0.325,"metacognition_realexp","cc",85.0008181486,1,"2013_Dec_05_0952",NA
"537",2,"down",0,0,0,0,3,6,36,5,3,0.341409119207,2,1,0.670312429616,3,0.575481268815,0.325,0.837837837838,0.325,"metacognition_realexp","cc",85.0008181486,1,"2013_Dec_05_0952",NA
"538",2,"down",0,0,0,0,3,7,37,7,2,0.282488749123,2,1,0.587715262423,2,0.787571808684,0.325,0.842105263158,0.325,"metacognition_realexp","cc",85.0008181486,1,"2013_Dec_05_0952",NA
"539",1,"left",0,0,0,0,3,8,38,8,3,0.341379473641,1,1,0.528856878522,3,1.04638568573,0.325,0.846153846154,0.325,"metacognition_realexp","cc",85.0008181486,1,"2013_Dec_05_0952",NA
"540",1,"left",0,0,0,0,3,9,39,6,1,0.28252686485,2,0,1.50525900792,1,0.387588441001,0.325,0.825,0.325,"metacognition_realexp","cc",85.0008181486,1,"2013_Dec_05_0952",NA
"541",2,"down",0,0,0,0,4,0,40,9,1,0.376618811536,2,1,0.870086199296,2,0.446385608733,0.325,0.829268292683,0.325,"metacognition_realexp","cc",85.0008181486,1,"2013_Dec_05_0952",NA
"542",1,"left",0,0,0,0,4,1,41,6,3,0.858903660765,1,1,0.623065867443,3,0.316983867807,0.325,0.833333333333,0.325,"metacognition_realexp","cc",85.0008181486,1,"2013_Dec_05_0952",NA
"543",1,"left",0,0,0,0,4,2,42,8,2,1.05870823103,1,1,1.05830936342,3,0.575807370042,0.325,0.837209302326,0.325,"metacognition_realexp","cc",85.0008181486,1,"2013_Dec_05_0952",NA
"544",1,"left",0,0,0,0,4,3,43,2,3,2.30593839189,1,1,0.99946214473,2,0.563983024256,0.325,0.840909090909,0.325,"metacognition_realexp","cc",85.0008181486,1,"2013_Dec_05_0952",NA
"545",2,"down",0,0,0,0,4,4,44,1,1,0.282496064262,1,0,0.88182507345,1,0.45817337882,0.325,0.822222222222,0.325,"metacognition_realexp","cc",85.0008181486,1,"2013_Dec_05_0952",NA
"546",1,"left",0,0,0,0,4,5,45,4,2,0.588405580605,1,1,0.575908626975,3,0.752265479509,0.325,0.826086956522,0.325,"metacognition_realexp","cc",85.0008181486,1,"2013_Dec_05_0952",NA
"547",1,"left",0,0,0,0,4,6,46,0,2,2.14118104085,2,0,0.693635789975,2,0.564011899807,0.325,0.808510638298,0.325,"metacognition_realexp","cc",85.0008181486,1,"2013_Dec_05_0952",NA
"548",2,"down",0,0,0,0,4,7,47,5,2,0.317760427635,2,1,0.693648495218,3,0.422872824757,0.325,0.8125,0.325,"metacognition_realexp","cc",85.0008181486,1,"2013_Dec_05_0952",NA
"549",2,"down",0,0,0,0,4,8,48,3,1,0.341261661391,2,1,0.75244566295,2,0.669945132603,0.325,0.816326530612,0.325,"metacognition_realexp","cc",85.0008181486,1,"2013_Dec_05_0952",NA
"550",2,"down",0,0,0,0,4,9,49,7,2,1.84711512066,2,1,0.952370355512,3,0.517022907552,0.325,0.82,0.325,"metacognition_realexp","cc",85.0008181486,1,"2013_Dec_05_0952",NA
"551",NA,"",0,0,0,0,NA,NA,NA,NA,NA,NA,NA,NA,NA,NA,NA,NA,NA,0.325,"metacognition_realexp","cc",85.0008181486,1,"2013_Dec_05_0952",NA
"552",1,"left",1,0,1,0,0,0,0,2,3,0.647183112962,1,1,0.422842024168,3,1.08140441442,0.325,1,0.325,"metacognition_realexp","cc",85.0008181486,1,"2013_Dec_05_0952",NA
"553",2,"down",1,0,1,0,0,1,1,7,3,0.400113885175,2,1,0.586857081036,3,0.400162011093,0.325,1,0.325,"metacognition_realexp","cc",85.0008181486,1,"2013_Dec_05_0952",NA
"554",1,"left",1,0,1,0,0,2,2,0,3,0.494220847147,1,1,0.587818444393,3,0.858040089276,0.325,1,0.325,"metacognition_realexp","cc",85.0008181486,1,"2013_Dec_05_0952",NA
"555",1,"left",1,0,1,0,0,3,3,4,1,1.14129808309,1,1,1.37598085435,1,0.657068561724,0.325,1,0.325,"metacognition_realexp","cc",85.0008181486,1,"2013_Dec_05_0952",NA
"556",2,"down",1,0,1,0,0,4,4,3,1,0.294291149489,2,1,0.65830058525,2,0.716941825004,0.325,1,0.325,"metacognition_realexp","cc",85.0008181486,1,"2013_Dec_05_0952",NA
"557",2,"down",1,0,1,0,0,5,5,1,3,0.329533567443,2,1,0.634854792552,3,0.646358427214,0.325,1,0.325,"metacognition_realexp","cc",85.0008181486,1,"2013_Dec_05_0952",NA
"558",1,"left",1,0,1,0,0,6,6,8,1,0.270725619506,1,1,0.634815136795,3,0.787606459346,0.325,1,0.325,"metacognition_realexp","cc",85.0008181486,1,"2013_Dec_05_0952",NA
"559",2,"down",1,0,1,0,0,7,7,5,3,0.341305937237,2,1,0.646524365382,3,0.552267250543,0.325,1,0.325,"metacognition_realexp","cc",85.0008181486,1,"2013_Dec_05_0952",NA
"560",2,"down",1,0,1,0,0,8,8,9,2,0.788359918733,2,1,0.964127710019,2,0.364064876819,0.325,1,0.325,"metacognition_realexp","cc",85.0008181486,1,"2013_Dec_05_0952",NA
"561",1,"left",1,0,1,0,0,9,9,6,3,0.458954943745,1,1,0.50542340606,3,1.39926840903,0.325,1,0.325,"metacognition_realexp","cc",85.0008181486,1,"2013_Dec_05_0952",NA
"562",2,"down",1,0,1,0,1,0,10,3,1,0.353053281552,1,0,0.881854719016,1,0.493520518774,0.325,0.909090909091,0.325,"metacognition_realexp","cc",85.0008181486,1,"2013_Dec_05_0952",NA
"563",2,"down",1,0,1,0,1,1,11,5,2,0.376595711095,2,1,0.622914559553,3,1.10533416136,0.325,0.916666666667,0.325,"metacognition_realexp","cc",85.0008181486,1,"2013_Dec_05_0952",NA
"564",1,"left",1,0,1,0,1,2,12,2,2,1.85880740893,1,1,0.564211718623,3,1.01103084563,0.325,0.923076923077,0.325,"metacognition_realexp","cc",85.0008181486,1,"2013_Dec_05_0952",NA
"565",1,"left",1,0,1,0,1,3,13,8,2,0.353051356516,1,1,1.04593060705,3,0.81166325871,0.325,0.928571428571,0.325,"metacognition_realexp","cc",85.0008181486,1,"2013_Dec_05_0952",NA
"566",1,"left",1,0,1,0,1,4,14,0,2,0.317946386187,1,1,0.505209341972,3,0.458111392637,0.325,0.933333333333,0.325,"metacognition_realexp","cc",85.0008181486,1,"2013_Dec_05_0952",NA
"567",2,"down",1,0,1,0,1,5,15,1,1,0.29423724846,2,1,0.835187977914,1,0.563666163206,0.325,0.9375,0.325,"metacognition_realexp","cc",85.0008181486,1,"2013_Dec_05_0952",NA
"568",1,"left",1,0,1,0,1,6,16,6,2,0.78823825641,1,1,0.470206398591,3,1.30505518503,0.325,0.941176470588,0.325,"metacognition_realexp","cc",85.0008181486,1,"2013_Dec_05_0952",NA
"569",2,"down",1,0,1,0,1,7,17,7,2,2.08234537238,2,1,0.693580733924,2,0.552299976168,0.325,0.944444444444,0.325,"metacognition_realexp","cc",85.0008181486,1,"2013_Dec_05_0952",NA
"570",1,"left",1,0,1,0,1,8,18,4,2,0.329577843289,1,1,0.999506035568,2,0.575713813255,0.325,0.947368421053,0.325,"metacognition_realexp","cc",85.0008181486,1,"2013_Dec_05_0952",NA
"571",2,"down",1,0,1,0,1,9,19,9,1,0.329587083465,2,1,0.99940246859,1,0.622868743679,0.325,0.95,0.325,"metacognition_realexp","cc",85.0008181486,1,"2013_Dec_05_0952",NA
"572",1,"left",1,0,1,0,2,0,20,6,2,0.823663552856,1,1,0.4818224554,2,0.54050643097,0.325,0.952380952381,0.325,"metacognition_realexp","cc",85.0008181486,1,"2013_Dec_05_0952",NA
"573",1,"left",1,0,1,0,2,1,21,4,1,1.38816633704,1,1,0.881892064729,1,0.963951376651,0.325,0.954545454545,0.325,"metacognition_realexp","cc",85.0008181486,1,"2013_Dec_05_0952",NA
"574",2,"down",1,0,1,0,2,2,22,1,2,0.858899810692,2,1,0.634790881332,3,0.481675382592,0.325,0.95652173913,0.325,"metacognition_realexp","cc",85.0008181486,1,"2013_Dec_05_0952",NA
"575",2,"down",1,0,1,0,2,3,23,9,1,0.282506844468,2,1,0.89358050292,1,0.764047474486,0.325,0.958333333333,0.325,"metacognition_realexp","cc",85.0008181486,1,"2013_Dec_05_0952",NA
"576",1,"left",1,0,1,0,2,4,24,0,2,0.329550507767,1,1,0.423073413587,3,0.858137496136,0.325,0.96,0.325,"metacognition_realexp","cc",85.0008181486,1,"2013_Dec_05_0952",NA
"577",1,"left",1,0,1,0,2,5,25,8,2,1.68236662479,2,0,0.575962913012,2,1.02286289157,0.325,0.923076923077,0.325,"metacognition_realexp","cc",85.0008181486,1,"2013_Dec_05_0952",NA
"578",2,"down",1,0,1,0,2,6,26,7,1,0.258955944764,2,1,0.728960599503,3,0.952235602939,0.325,0.925925925926,0.325,"metacognition_realexp","cc",85.0008181486,1,"2013_Dec_05_0952",NA
"579",2,"down",1,0,1,0,2,7,27,5,2,0.61189526414,2,1,0.564200938417,3,1.01107858655,0.325,0.928571428571,0.325,"metacognition_realexp","cc",85.0008181486,1,"2013_Dec_05_0952",NA
"580",2,"down",1,0,1,0,2,8,28,3,1,0.74124849414,1,0,0.64656402114,2,0.505331389303,0.325,0.896551724138,0.325,"metacognition_realexp","cc",85.0008181486,1,"2013_Dec_05_0952",NA
"581",1,"left",1,0,1,0,2,9,29,2,2,0.364825266338,1,1,0.493647956208,3,0.646415023295,0.325,0.9,0.325,"metacognition_realexp","cc",85.0008181486,1,"2013_Dec_05_0952",NA
"582",1,"left",1,0,1,0,3,0,30,6,1,0.435447164864,1,1,0.62304738709,2,0.52869286539,0.325,0.903225806452,0.325,"metacognition_realexp","cc",85.0008181486,1,"2013_Dec_05_0952",NA
"583",1,"left",1,0,1,0,3,1,31,2,2,2.14115563037,1,1,0.552505185086,2,0.56396646894,0.325,0.90625,0.325,"metacognition_realexp","cc",85.0008181486,1,"2013_Dec_05_0952",NA
"584",2,"down",1,0,1,0,3,2,32,5,1,0.317837814113,1,0,1.58762055061,1,0.669924342205,0.325,0.878787878788,0.325,"metacognition_realexp","cc",85.0008181486,1,"2013_Dec_05_0952",NA
"585",2,"down",1,0,1,0,3,3,33,1,2,1.32948274647,2,1,1.18768761889,3,1.09340316853,0.325,0.882352941176,0.325,"metacognition_realexp","cc",85.0008181486,1,"2013_Dec_05_0952",NA
"586",2,"down",1,0,1,0,3,4,34,3,1,0.36480178089,2,1,1.95244658697,2,1.44622737071,0.325,0.885714285714,0.325,"metacognition_realexp","cc",85.0008181486,1,"2013_Dec_05_0952",NA
"587",2,"down",1,0,1,0,3,5,35,7,1,1.36473555963,1,0,0.893611303508,1,0.787841698837,0.325,0.861111111111,0.325,"metacognition_realexp","cc",85.0008181486,1,"2013_Dec_05_0952",NA
"588",1,"left",1,0,1,0,3,6,36,0,1,0.85890443078,1,1,0.693599599284,2,0.481685007775,0.325,0.864864864865,0.325,"metacognition_realexp","cc",85.0008181486,1,"2013_Dec_05_0952",NA
"589",1,"left",1,0,1,0,3,7,37,4,1,2.22356260393,1,1,0.634710414795,2,0.399385066258,0.325,0.868421052632,0.325,"metacognition_realexp","cc",85.0008181486,1,"2013_Dec_05_0952",NA
"590",2,"down",1,0,1,0,3,8,38,9,1,0.564843130679,1,0,1.1641844601,1,0.411207102,0.325,0.846153846154,0.325,"metacognition_realexp","cc",85.0008181486,1,"2013_Dec_05_0952",NA
"591",1,"left",1,0,1,0,3,9,39,8,2,0.470731163612,1,1,0.834764469827,3,0.458185314048,0.325,0.85,0.325,"metacognition_realexp","cc",85.0008181486,1,"2013_Dec_05_0952",NA
"592",1,"left",1,0,1,0,4,0,40,0,1,0.305976122614,1,1,0.564176682954,2,0.317006583241,0.325,0.853658536585,0.325,"metacognition_realexp","cc",85.0008181486,1,"2013_Dec_05_0952",NA
"593",1,"left",1,0,1,0,4,1,41,4,2,1.07069620494,1,1,0.587152766682,3,0.470465893546,0.325,0.857142857143,0.325,"metacognition_realexp","cc",85.0008181486,1,"2013_Dec_05_0952",NA
